<?xml version="1.0" encoding="utf-8"?>
<Condition xmlns="http://hl7.org/fhir">
    <id value="9cbd3dda-c51a-4e68-af70-f0de60cb8ba7"/>
    <meta>
        <versionId value="5dc8eac2-de86-4e97-949a-8eb9e26e4237"/>
        <lastUpdated value="2016-03-01T10:04:33+00:00"/>
        <profile value="https://fhir.nhs.uk/STU3/StructureDefinition/CareConnect-RARecord-Condition-1" />
    </meta>
    <contained>
        <Provenance>
            <id value="8add130e-0c04-4dd1-94a0-b3317fb26dfc"/>
            <meta>
                <profile value="https://fhir.nhs.uk/STU3/StructureDefinition/RARecord-Provenance-1"/>
            </meta>
            <target>
                <reference value="Condition/9cbd3dda-c51a-4e68-af70-f0de60cb8ba7"/>
            </target>
            <recorded value="2016-03-01T10:05:33+00:00"/>
            <agent>
                <role>
                    <coding>
                        <system value="https://fhir.nhs.uk/STU3/CodeSystem/CareConnect-SDSJobRoleName-1"/>
                        <code value="R0260"/>
                        <display value="General Medical Practitioner"/>
                    </coding>
                </role>
                <whoReference>
                    <reference value="https://sds.spineservices.nhs.uk/STU3/Practitioner/2ee4tr6a9"/>
                    <display value="Dr.D"/>
                </whoReference>
                <onBehalfOfReference>
                    <reference value="https://directory.spineservices.nhs.uk/STU3/Organization/a3e5i7"/>
                    <display value="Some GP Clinic"/>
                </onBehalfOfReference>
            </agent>
        </Provenance>
    </contained>
    <extension url="https://fhir.nhs.uk/STU3/StructureDefinition/Extension-RARecord-Provenance-1">
        <extension url="created">
            <valueReference>
                <reference value="#8add130e-0c04-4dd1-94a0-b3317fb26dfc"/>
            </valueReference>
        </extension>
    </extension>
    <clinicalStatus value="active"/>
    <category>
        <coding>
            <system value="https://fhir.hl7.org.uk/STU3/CodeSystem/CareConnect-ConditionCategory-1"/>
            <code value="issue"/>
            <display value="Issue"/>
        </coding>
    </category>
    <code>
        <coding>
            <system value="https://fhir.nhs.uk/STU3/CodeSystem/CodeSystem-RARecord-AccessibleInformationAdjustments-1"/>
            <code value="requiresinformationineasyread"/>
            <display value="Requires information in Easyread"/>
        </coding>
    </code>
    <subject>
        <reference value="demographics.spineservices.nhs.uk/STU3/Patient/999999998"/>
    </subject>
</Condition>