<?xml version="1.0" encoding="UTF-8"?>
<Bundle xmlns="http://hl7.org/fhir">
	<id value="97be8432-5a9a-4c71-a083-b337323b8d6d"/>
	<meta>
		<profile value="https://fhir.nhs.uk/STU3/StructureDefinition/DCH-Bundle-1"/>
	</meta>
	<type value="message"/>
	<entry>
		<fullUrl value="urn:uuid:f9cd5599-09e9-4c4d-a307-aba745cf0704"/>
		<resource>
			<MessageHeader>
				<id value="f9cd5599-09e9-4c4d-a307-aba745cf0704"/>
				<meta>
					<profile value="https://fhir.nhs.uk/STU3/StructureDefinition/DCH-MessageHeader-1"/>
				</meta>
				<extension url="https://fhir.nhs.uk/STU3/StructureDefinition/Extension-DCH-MessageEventType-1">
					<valueCodeableConcept>
						<coding>
							<system value="https://fhir.nhs.uk/STU3/CodeSystem/DCH-MessageEventType-1"/>
							<code value="new"/>
							<display value="New event message"/>
						</coding>
					</valueCodeableConcept>
				</extension>
				<event>
					<system value="https://fhir.nhs.uk/STU3/CodeSystem/DCH-ChildHealthEventType-1"/>
					<code value="CH019"/>
					<display value="Medication Statement"/>
				</event>
				<destination>
					<endpoint value="urn:nhs:addressing:asid:477121000325"/>
				</destination>
				<timestamp value="2017-11-01T15:00:00+00:00"/>
				<source>
					<endpoint value="urn:nhs:addressing:asid:300000000161"/>
				</source>
				<responsible>
					<reference value="urn:uuid:52d626bc-1800-11e9-ab14-d663bd873d93"/>
					<display value="UNIVERSITY HOSPITAL OF NORTH DURHAM"/>
				</responsible>
				<focus>
					<reference value="urn:uuid:b080b4ee-1800-11e9-ab14-d663bd873d93"/>
				</focus>
			</MessageHeader>
		</resource>
	</entry>
	<!--Responsible for message content (Birth)-->
	<entry>
		<fullUrl value="urn:uuid:52d626bc-1800-11e9-ab14-d663bd873d93"/>
		<resource>
			<Organization>
				<id value="52d626bc-1800-11e9-ab14-d663bd873d93"/>
				<meta>
					<profile value="https://fhir.hl7.org.uk/STU3/StructureDefinition/CareConnect-Organization-1"/>
				</meta>
				<identifier>
					<system value="https://fhir.nhs.uk/Id/ods-organization-code"/>
					<value value="RX3EP"/>
				</identifier>
				<name value="UNIVERSITY HOSPITAL OF NORTH DURHAM"/>
				<address>
					<line value="NORTH ROAD"/>
					<city value="DURHAM"/>
					<district value="COUNTY DURHAM"/>
					<postalCode value="DH1 5TW"/>
				</address>
			</Organization>
		</resource>
	</entry>
	<!--Healthcare service used e.g GP, trust, etc..-->
	<entry>
		<fullUrl value="urn:uuid:e67db06a-1800-11e9-ab14-d663bd873d93"/>
		<resource>
			<HealthcareService>
				<id value="e67db06a-1800-11e9-ab14-d663bd873d93"/>
				<meta>
					<profile value="https://fhir.nhs.uk/STU3/StructureDefinition/DCH-HealthcareService-1"/>
				</meta>
				<providedBy>
					<reference value="urn:uuid:52d626bc-1800-11e9-ab14-d663bd873d93"/>
					<display value="UNIVERSITY HOSPITAL OF DURHAM "/>
				</providedBy>
				<type>
					<coding>
						<system value="http://snomed.info/sct"/>
						<code value="714088003"/>
						<display value="Midwifery Service"/>
					</coding>
				</type>
				<location>
					<reference value="urn:uuid:03a74642-1801-11e9-ab14-d663bd873d93"/>
				</location>
				<telecom>
					<system value="phone"/>
					<value value="0191 1231234"/>
				</telecom>
			</HealthcareService>
		</resource>
	</entry>
	<!--Baby Patient-->
	<entry>
		<fullUrl value="urn:uuid:2cebc0be-1801-11e9-ab14-d663bd873d93"/>
		<resource>
			<Patient>
				<id value="2cebc0be-1801-11e9-ab14-d663bd873d93"/>
				<meta>
					<profile value="https://fhir.nhs.uk/STU3/StructureDefinition/CareConnect-DCH-Patient-1"/>
				</meta>
				<identifier>
					<extension url="https://fhir.hl7.org.uk/STU3/StructureDefinition/Extension-CareConnect-NHSNumberVerificationStatus-1">
						<valueCodeableConcept>
							<coding>
								<system value="https://fhir.hl7.org.uk/STU3/CodeSystem/CareConnect-NHSNumberVerificationStatus-1"/>
								<code value="01"/>
								<display value="Number present and verified"/>
							</coding>
						</valueCodeableConcept>
					</extension>
					<system value="https://fhir.nhs.uk/Id/nhs-number"/>
					<value value="9912003888"/>
				</identifier>
				<name>
					<use value="official"/>
					<family value="DAWKINS"/>
					<given value="Jack"/>
				</name>
				<gender value="male"/>
				<birthDate value="2017-10-02">
					<extension url="http://hl7.org/fhir/StructureDefinition/patient-birthTime">
						<valueDateTime value="2017-10-02T20:12:00+00:00"/>
					</extension>
				</birthDate>
				<address>
					<use value="home"/>
					<line value="4 Sandmoor Drive"/>
					<city value="DURHAM"/>
					<postalCode value="DH1 2TF"/>
				</address>
				<multipleBirthInteger value="1"/>
			</Patient>
		</resource>
	</entry>
	<!--Encounter details-->
	<entry>
		<fullUrl value="urn:uuid:b080b4ee-1800-11e9-ab14-d663bd873d93"/>
		<resource>
			<Encounter>
				<id value="b080b4ee-1800-11e9-ab14-d663bd873d93"/>
				<meta>
					<profile value="https://fhir.nhs.uk/STU3/StructureDefinition/CareConnect-DCH-Encounter-1"/>
				</meta>
				<status value="finished"/>
				<subject>
					<reference value="urn:uuid:2cebc0be-1801-11e9-ab14-d663bd873d93"/>
					<display value="DAWKINS, Jack"/>
				</subject>
				<period>
					<start value="2014-10-12"/>
				</period>
				<location>
					<location>
						<reference value="urn:uuid:03a74642-1801-11e9-ab14-d663bd873d93"/>
					</location>
				</location>
				<serviceProvider>
					<reference value="urn:uuid:52d626bc-1800-11e9-ab14-d663bd873d93"/>
					<display value="UNIVERSITY HOSPITAL OF NORTH DURHAM"/>
				</serviceProvider>
			</Encounter>
		</resource>
	</entry>
	<!--Location where event took place (Maternity Site)-->
	<entry>
		<fullUrl value="urn:uuid:03a74642-1801-11e9-ab14-d663bd873d93"/>
		<resource>
			<Location>
				<id value="03a74642-1801-11e9-ab14-d663bd873d93"/>
				<meta>
					<profile value="https://fhir.nhs.uk/STU3/StructureDefinition/CareConnect-DCH-Delivery-Location-1"/>
				</meta>
				<identifier>
					<system value="https://fhir.nhs.uk/Id/ods-site-code"/>
					<value value="RX3EP"/>
				</identifier>
			</Location>
		</resource>
	</entry>
	<!--Practitioner from Encounter-->
	<entry>
		<fullUrl value="urn:uuid:b5afaa4a-1802-11e9-ab14-d663bd873d93"/>
		<resource>
			<Practitioner>
				<id value="b5afaa4a-1802-11e9-ab14-d663bd873d939"/>
				<meta>
					<profile value="https://fhir.nhs.uk/STU3/StructureDefinition/CareConnect-DCH-Practitioner-1"/>
				</meta>
				<identifier>
					<system value="https://fhir.nhs.uk/Id/sds-role-profile-id"/>
					<value value="PT2468"/>
				</identifier>
				<name>
					<family value="BASHIR"/>
					<given value="Julian"/>
					<prefix value="Dr."/>
				</name>
			</Practitioner>
		</resource>
	</entry>
	<!--List for Active Medications-->
	<entry>
		<fullUrl value="urn:uuid:d0710501-2e32-4cbd-bd63-a14354bbcd0f"/>
		<resource>
			<List>
				<id value="d0710501-2e32-4cbd-bd63-a14354bbcd0f"/>
				<meta>
					<profile value="https://fhir.nhs.uk/STU3/StructureDefinition/CareConnect-ITK-Medication-List-1"/>
				</meta>
				<identifier>
					<system value="https://tools.ietf.org/html/rfc4122"/>
					<value value="cb8e31b2-15d4-4fe6-a690-13934348fbf1"/>
				</identifier>
				<status value="current"/>
				<mode value="snapshot"/>
				<title value="Medication Active List"/>
				<!--	Code to indicate the type of list-->
				<code>
					<coding>
						<system value="http://snomed.info/sct"/>
						<code value="1102411000000102"/>
						<display value="Active Medications"/>
					</coding>
				</code>
				<!-- Reference to the patient who is the subject of this list -->
				<subject>
					<reference value="urn:uuid:2cebc0be-1801-11e9-ab14-d663bd873d93"/>
				</subject>
				<!-- Reference to the Encounter where list was created -->
				<encounter>
					<reference value="urn:uuid:b080b4ee-1800-11e9-ab14-d663bd873d93"/>
				</encounter>
				<!-- Reference to the practitioner who created this list -->
				<source>
					<reference value="urn:uuid:b5afaa4a-1802-11e9-ab14-d663bd873d93"/>
				</source>
				<!-- An entry for an active medication carried in the MedicationStatement resource -->
				<entry>
					<item>
						<reference value="urn:uuid:1092404d-00c9-4f9e-b7df-9abbc8762c91"/>
					</item>
				</entry>
				<!-- An entry for an active medication carried in the MedicationStatement resource with change -->
				<entry>
					<item>
						<reference value="urn:uuid:934ac400-f197-4bbc-a307-5ce8d271d4dd"/>
					</item>
				</entry>
			</List>
		</resource>
	</entry>
	<!--Medication that has been changed-->
	<entry>
		<fullUrl value="urn:uuid:934ac400-f197-4bbc-a307-5ce8d271d4dd"/>
		<resource>
			<MedicationStatement>
				<id value="934ac400-f197-4bbc-a307-5ce8d271d4dd"/>
				<meta>
					<profile value="https://fhir.nhs.uk/STU3/StructureDefinition/CareConnect-DCH-MedicationStatement-1"/>
				</meta>
				<!--Change details extension-->
				<extension url="https://fhir.hl7.org.uk/STU3/StructureDefinition/Extension-CareConnect-MedicationChangeSummary-1">
					<extension url="status">
						<valueCode value="Amended"/>
						<!-- <code  -->
						<!-- </valueCode> -->
					</extension>
					<extension url="indicationForChange">
						<valueCodeableConcept>
							<coding>
								<system value="http://snomed.info/sct"/>
								<code value="275929009"/>
								<display value="Tablets too large to swallow"/>
							</coding>
						</valueCodeableConcept>
					</extension>
					<extension url="dateChanged">
						<valueDateTime value="2018-07-21"/>
					</extension>
					<extension url="detailsOfAmendment">
						<valueString value="Changed from tablet form to solution as tablet were being crushed before taking"/>
					</extension>
				</extension>
				<context>
					<reference value="urn:uuid:b080b4ee-1800-11e9-ab14-d663bd873d93"/>
				</context>
				<!--The state of the medication used that this statement is about.-->
				<status value="active"/>
				<!--Reference to medication-->
				<medicationReference>
					<reference value="urn:uuid:1f9df0bc-1806-11e9-ab14-d663bd873d93"/>
				</medicationReference>
				<effectivePeriod>
					<!-- when started -->
					<start value="2018-07-21"/>
				</effectivePeriod>
				<!--Reference to the patient as the subject of this medication-->
				<subject>
					<reference value="urn:uuid:2cebc0be-1801-11e9-ab14-d663bd873d93"/>
				</subject>
				<taken value="unk"/>
				<dosage>
					<text value="Take as needed. Do not exceed more than 5 doses per day"/>
					<!--How drug should enter body showing SNOMED CT route codes-->
					<route>
						<coding>
							<system value="http://snomed.info/sct"/>
							<code value="26643006"/>
							<display value="Oral"/>
						</coding>
					</route>
					<!--Details of dose quantity and frequency-->
				</dosage>
			</MedicationStatement>
		</resource>
	</entry>
	<entry>
		<fullUrl value="urn:uuid:1f9df0bc-1806-11e9-ab14-d663bd873d93"/>
		<resource>
			<Medication>
				<id value="1f9df0bc-1806-11e9-ab14-d663bd873d93"/>
				<meta>
					<profile value="https://fhir.nhs.uk/STU3/StructureDefinition/CareConnect-DCH-Medication-1"/>
				</meta>
				<code>
					<coding>
						<system value="http://snomed.info/sct"/>
						<code value="322246006"/>
						<display value="Paracetamol 100mg/ml oral solution sugar free"/>
					</coding>
				</code>
			</Medication>
		</resource>
	</entry>
	<!--Medication statement for a medication that is continued-->
	<entry>
		<fullUrl value="urn:uuid:1092404d-00c9-4f9e-b7df-9abbc8762c91"/>
		<resource>
			<MedicationStatement>
				<id value="1092404d-00c9-4f9e-b7df-9abbc8762c91"/>
				<meta>
					<profile value="https://fhir.nhs.uk/STU3/StructureDefinition/CareConnect-DCH-MedicationStatement-1"/>
				</meta>
				<context>
					<reference value="urn:uuid:b080b4ee-1800-11e9-ab14-d663bd873d93"/>
				</context>
				<!--The state of the medication used that this statement is about.-->
				<status value="active"/>
				<!--Reference to medication-->
				<medicationReference>
					<reference value="urn:uuid:be4f73b4-2969-4ae8-8ff1-e2e798967f95"/>
				</medicationReference>
				<effectivePeriod>
					<!-- when started -->
					<start value="2018-07-21"/>
				</effectivePeriod>
				<!--Reference to the patient as the subject of this medication-->
				<subject>
					<reference value="urn:uuid:2cebc0be-1801-11e9-ab14-d663bd873d93"/>
				</subject>
				<taken value="unk"/>
				<dosage>
					<text value="Take two tablets daily"/>
					<additionalInstruction>
						<text value="Stop when course complete"/>
					</additionalInstruction>
					<!--How drug should enter body showing SNOMED CT route codes-->
					<route>
						<coding>
							<system value="http://snomed.info/sct"/>
							<code value="26643006"/>
							<display value="Oral"/>
						</coding>
					</route>
					<!--Details of dose quantity and frequency-->
				</dosage>
			</MedicationStatement>
		</resource>
	</entry>
	<entry>
		<fullUrl value="urn:uuid:be4f73b4-2969-4ae8-8ff1-e2e798967f95"/>
		<resource>
			<Medication>
				<id value="be4f73b4-2969-4ae8-8ff1-e2e798967f95"/>
				<meta>
					<profile value="https://fhir.nhs.uk/STU3/StructureDefinition/CareConnect-DCH-Medication-1"/>
				</meta>
				<code>
					<coding>
						<system value="http://snomed.info/sct"/>
						<code value="407847009"/>
						<display value="Omeprazole 15mg gastro-resistant tablets"/>
					</coding>
				</code>
			</Medication>
		</resource>
	</entry>
	<!--List for discontinued-->
	<entry>
		<fullUrl value="urn:uuid:a9dd608a-1812-11e9-ab14-d663bd873d93"/>
		<resource>
			<List>
				<id value="a9dd608a-1812-11e9-ab14-d663bd873d93"/>
				<meta>
					<profile value="https://fhir.nhs.uk/STU3/StructureDefinition/CareConnect-ITK-Medication-List-1"/>
				</meta>
				<identifier>
					<system value="https://tools.ietf.org/html/rfc4122"/>
					<value value="bee0b3e2-1812-11e9-ab14-d663bd873d93"/>
				</identifier>
				<status value="current"/>
				<mode value="snapshot"/>
				<title value="Medication Discontinued List"/>
				<!--	Code to indicate the type of list-->
				<code>
					<coding>
						<system value="http://snomed.info/sct"/>
						<code value="1102191000000100"/>
						<display value="Discontinued medications"/>
					</coding>
				</code>
				<!-- Reference to the patient who is the subject of this list -->
				<subject>
					<reference value="urn:uuid:2cebc0be-1801-11e9-ab14-d663bd873d93"/>
				</subject>
				<!-- Reference to the Encounter where list was created -->
				<encounter>
					<reference value="urn:uuid:b080b4ee-1800-11e9-ab14-d663bd873d93"/>
				</encounter>
				<!-- Reference to the practitioner who created this list -->
				<source>
					<reference value="urn:uuid:b5afaa4a-1802-11e9-ab14-d663bd873d93"/>
				</source>
				<!-- An entry for a discontinued medication carried in the MedicationStatement resource -->
				<entry>
					<item>
						<reference value="urn:uuid:f6f8fff0-1812-11e9-ab14-d663bd873d93"/>
					</item>
				</entry>
			</List>
		</resource>
	</entry>
	<!--Medication statement for a medication that is continued-->
	<entry>
		<fullUrl value="urn:uuid:f6f8fff0-1812-11e9-ab14-d663bd873d93"/>
		<resource>
			<MedicationStatement>
				<id value="f6f8fff0-1812-11e9-ab14-d663bd873d93"/>
				<meta>
					<profile value="https://fhir.nhs.uk/STU3/StructureDefinition/CareConnect-DCH-MedicationStatement-1"/>
				</meta>
				<context>
					<reference value="urn:uuid:b080b4ee-1800-11e9-ab14-d663bd873d93"/>
				</context>
				<!--The state of the medication used that this statement is about.-->
				<status value="stopped"/>
				<!--Reference to medication-->
				<medicationReference>
					<reference value="urn:uuid:d2df65e0-1813-11e9-ab14-d663bd873d93"/>
				</medicationReference>
				<effectiveDateTime value="2018-07-21"/>
				<!--Reference to the patient as the subject of this medication-->
				<subject>
					<reference value="urn:uuid:2cebc0be-1801-11e9-ab14-d663bd873d93"/>
				</subject>
				<taken value="unk"/>
				<note>
					<text value="Stopped paracetamol tables and put patient on oral solution"/>
				</note>
			</MedicationStatement>
		</resource>
	</entry>
	<entry>
		<fullUrl value="urn:uuid:d2df65e0-1813-11e9-ab14-d663bd873d93"/>
		<resource>
			<Medication>
				<id value="d2df65e0-1813-11e9-ab14-d663bd873d93"/>
				<meta>
					<profile value="https://fhir.nhs.uk/STU3/StructureDefinition/CareConnect-DCH-Medication-1"/>
				</meta>
				<code>
					<coding>
						<system value="http://snomed.info/sct"/>
						<code value="348468004"/>
						<display value="Paracetamol 150mg / Sodium salicylate 100mg tablets"/>
					</coding>
				</code>
			</Medication>
		</resource>
	</entry>
</Bundle>
