<?xml version="1.0" encoding="UTF-8"?>
<Bundle xmlns="http://hl7.org/fhir">
	<id value="66aa57f6-4882-11e8-842f-0ed5f89f718b"/>
	<meta>
		<profile value="https://fhir.nhs.uk/STU3/StructureDefinition/DCH-Bundle-1"/>
	</meta>
	<type value="message"/>
	<entry>
		<fullUrl value="urn:uuid:85c8a1c5-a8a1-41c9-bb99-20956fa66218"/>
		<resource>
			<MessageHeader>
				<id value="85c8a1c5-a8a1-41c9-bb99-20956fa66218"/>
				<meta>
					<profile value="https://fhir.nhs.uk/STU3/StructureDefinition/DCH-MessageHeader-1"/>
				</meta>
				<extension url="https://fhir.nhs.uk/STU3/StructureDefinition/Extension-DCH-MessageEventType-1">
					<valueCodeableConcept>
						<coding>
							<system value="https://fhir.nhs.uk/STU3/CodeSystem/DCH-MessageEventType-1"/>
							<code value="new"/>
							<display value="New event message"/>
						</coding>
					</valueCodeableConcept>
				</extension>
				<event>
					<system value="https://fhir.nhs.uk/STU3/CodeSystem/DCH-ChildHealthEventType-1"/>
					<code value="CH030"/>
					<display value="Social Context Household"/>
				</event>
				<destination>
					<endpoint value="urn:nhs:addressing:asid:477121007825"/>
				</destination>
				<timestamp value="2017-11-01T15:00:00+00:00"/>
				<source>
					<endpoint value="urn:nhs-uk:addressing:ods:RX3QS"/>
				</source>
				<responsible>
					<reference value="urn:uuid:48833cb6-a2d5-4364-9b08-7d2ef6dacffb"/>
					<display value="DURHAM SOCIAL SERVICES"/>
				</responsible>
				<focus>
					<reference value="urn:uuid:b6c9ce9b-4092-448b-8fc0-287cd26cec4b"/>
				</focus>
			</MessageHeader>
		</resource>
	</entry>
	<!--Responsible org-->
	<entry>
		<fullUrl value="urn:uuid:48833cb6-a2d5-4364-9b08-7d2ef6dacffb"/>
		<resource>
			<Organization>
				<id value="48833cb6-a2d5-4364-9b08-7d2ef6dacffb"/>
				<meta>
					<profile value="https://fhir.hl7.org.uk/STU3/StructureDefinition/CareConnect-Organization-1"/>
				</meta>
				<identifier>
					<system value="https://fhir.nhs.uk/Id/ods-organization-code"/>
					<value value="RX3QJ"/>
				</identifier>
				<name value="DURHAM SOCIAL SERVICES"/>
				<address>
					<line value="PRIORY HOUSE"/>
					<line value="ABBEY ROAD"/>
					<city value="PITY ME"/>
					<district value="COUNTY DURHAM"/>
					<postalCode value="DH1 5RR"/>
				</address>
			</Organization>
		</resource>
	</entry>
	<!--Healthcare service used e.g GP, trust, etc..-->
	<entry>
		<fullUrl value="urn:uuid:5a293df7-b22f-41b6-8bf1-44248ea59edb"/>
		<resource>
			<HealthcareService>
				<id value="5a293df7-b22f-41b6-8bf1-44248ea59edb"/>
				<meta>
					<profile value="https://fhir.nhs.uk/STU3/StructureDefinition/DCH-HealthcareService-1"/>
				</meta>
				<providedBy>
					<reference value="urn:uuid:48833cb6-a2d5-4364-9b08-7d2ef6dacffb"/>
					<display value="DURHAM SOCIAL SERVICES"/>
				</providedBy>
				<type>
					<coding>
						<system value="http://snomed.info/sct"/>
						<code value="71078501000000104"/>
						<display value="Health visiting service"/>
					</coding>
				</type>
				<location>
					<reference value="urn:uuid:e3177167-40fc-4f1a-80f2-a2f17f18fde7"/>
				</location>
				<telecom>
					<system value="phone"/>
					<value value="0191 9876543"/>
				</telecom>
			</HealthcareService>
		</resource>
	</entry>
	<!--Child Details (Jack Dawkins)-->
	<entry>
		<fullUrl value="urn:uuid:5d5845f3-398f-474b-af59-14882fc7b0ca"/>
		<resource>
			<Patient>
				<id value="5d5845f3-398f-474b-af59-14882fc7b0ca"/>
				<meta>
					<profile value="https://fhir.nhs.uk/STU3/StructureDefinition/CareConnect-DCH-Patient-1"/>
				</meta>
				<identifier>
					<extension url="https://fhir.hl7.org.uk/STU3/StructureDefinition/Extension-CareConnect-NHSNumberVerificationStatus-1">
						<valueCodeableConcept>
							<coding>
								<system value="https://fhir.hl7.org.uk/STU3/CodeSystem/CareConnect-NHSNumberVerificationStatus-1"/>
								<code value="01"/>
								<display value="Number present and verified"/>
							</coding>
						</valueCodeableConcept>
					</extension>
					<system value="https://fhir.nhs.uk/Id/nhs-number"/>
					<value value="9912003888"/>
				</identifier>
				<name>
					<use value="official"/>
					<family value="DAWKINS"/>
					<given value="Jack"/>
				</name>
				<gender value="male"/>
				<birthDate value="2013-10-12">
					<extension url="http://hl7.org/fhir/StructureDefinition/patient-birthTime">
						<valueDateTime value="2017-10-02T12:00:00+00:00"/>
					</extension>
				</birthDate>
				<address>
					<use value="home"/>
					<line value="4 Sandmoor Drive"/>
					<city value="DURHAM"/>
					<postalCode value="DH1 2TF"/>
				</address>
			</Patient>
		</resource>
	</entry>
	<!--Social Context Household Encounter details-->
	<entry>
		<fullUrl value="urn:uuid:b6c9ce9b-4092-448b-8fc0-287cd26cec4b"/>
		<resource>
			<Encounter>
				<id value="b6c9ce9b-4092-448b-8fc0-287cd26cec4b"/>
				<meta>
					<profile value="https://fhir.nhs.uk/STU3/StructureDefinition/CareConnect-DCH-Encounter-1"/>
				</meta>
				<status value="finished"/>
				<type>
					<coding>
						<system value="https://fhir.nhs.uk/STU3/CodeSystem/DCH-ChildHealthEncounterType-1"/>
						<code value="0022"/>
						<display value="6-8 Week Health Visitor review"/>
					</coding>
				</type>
				<subject>
					<reference value="urn:uuid:5d5845f3-398f-474b-af59-14882fc7b0ca"/>
					<display value="DAWKINS, Jack"/>
				</subject>
				<period>
					<start value="2018-01-29"/>
				</period>
				<location>
					<location>
						<reference value="urn:uuid:e3177167-40fc-4f1a-80f2-a2f17f18fde7"/>
						<display value="DURHAM SOCIAL SERVICES"/>
					</location>
				</location>
				<serviceProvider>
					<reference value="urn:uuid:48833cb6-a2d5-4364-9b08-7d2ef6dacffb"/>
					<display value="DURHAM SOCIAL SERVICES"/>
				</serviceProvider>
			</Encounter>
		</resource>
	</entry>
	<!--Social Context Household-->
	<entry>
		<fullUrl value="urn:uuid:9fa0541c-67a2-4946-a7e3-ef3c4a8991f1"/>
		<resource>
			<QuestionnaireResponse>
				<id value="9fa0541c-67a2-4946-a7e3-ef3c4a8991f1"/>
				<meta>
					<profile value="https://fhir.nhs.uk/STU3/StructureDefinition/DCH-SocialContextHousehold-QuestionnaireResponse-1"/>
				</meta>
				<status value="completed"/>
				<subject>
					<reference value="urn:uuid:5d5845f3-398f-474b-af59-14882fc7b0ca"/>
				</subject>
				<context>
					<reference value="urn:uuid:b6c9ce9b-4092-448b-8fc0-287cd26cec4b"/>
				</context>
				<item>
					<linkId value="mothersEducationLevel"/>
					<text value="Mothers Education Level"/>
					<answer>
						<valueCoding>
							<system value="https://fhir.nhs.uk/STU3/CodeSystem/DCH-EducationLevel-1"/>
							<code value="level7"/>
							<display value="Master's degree"/>
						</valueCoding>
					</answer>
				</item>
				<item>
					<linkId value="householdSmokingStatus"/>
					<text value="Household smoking status"/>
					<answer>
						<valueCoding>
							<system value="http://snomed.info/sct"/>
							<code value="94151000119101"/>
							<display value="Smoker in household (situation)"/>
						</valueCoding>
					</answer>
				</item>
				<item>
					<linkId value="substanceStatus"/>
					<text value="Household substance status"/>
					<answer>
						<valueCoding>
							<system value="http://snomed.info/sct"/>
							<code value="1104271000000102"/>
							<display value="No history of substance misuse in household (finding)"/>
						</valueCoding>
					</answer>
				</item>
				<item>
					<linkId value="householdAlcoholDrinkingStatus"/>
					<text value="Household alcohol drinking status"/>
					<answer>
						<valueCoding>
							<system value="http://snomed.info/sct"/>
							<code value="1104841000000109"/>
							<display value="No history of alcohol use in household (situation)"/>
						</valueCoding>
					</answer>
				</item>
				<item>
					<linkId value="employmentStatusCareGiver1"/>
					<text value="Employment status (care giver 1)"/>
					<answer>
						<valueCoding>
							<system value="https://fhir.nhs.uk/STU3/CodeSystem/DCH-EmploymentStatus-1"/>
							<code value="1"/>
							<display value="Employed"/>
						</valueCoding>
					</answer>
				</item>
				<item>
					<linkId value="occupationCareGiver1"/>
					<text value="Care giver 1's occupation"/>
					<answer>
						<valueCoding>
							<system value="http://snomed.info/sct"/>
							<code value="25285009"/>
							<display value="Accountant (general)"/>
						</valueCoding>
					</answer>
				</item>
				<item>
					<linkId value="employmentStatusCareGiver2"/>
					<text value="Employment status (care giver 2)"/>
					<answer>
						<valueCoding>
							<system value="https://fhir.nhs.uk/STU3/CodeSystem/DCH-EmploymentStatus-1"/>
							<code value="1"/>
							<display value="Employed"/>
						</valueCoding>
					</answer>
				</item>
				<item>
					<linkId value="occupationCareGiver2"/>
					<text value="Care giver 2's occupation"/>
					<answer>
						<extension url="http://hl7.org/fhir/StructureDefinition/questionnaireresponse-note">
							<valueAnnotation>
								<text value="Business Analyst"/>
							</valueAnnotation>
						</extension>
						<valueCoding>
							<system value="http://snomed.info/sct"/>
							<code value="20222007"/>
							<display value="Systems analyst"/>
						</valueCoding>
					</answer>
				</item>
				<item>
					<linkId value="accommodationStatus"/>
					<text value="Accommodation status"/>
					<answer>
						<valueCoding>
							<system value="https://fhir.nhs.uk/STU3/CodeSystem/DCH-AccommodationStatus-1"/>
							<code value="MA01"/>
							<display value="Owner occupier"/>
						</valueCoding>
					</answer>
				</item>
			</QuestionnaireResponse>
		</resource>
	</entry>
	<!--Location where event took place-->
	<entry>
		<fullUrl value="urn:uuid:e3177167-40fc-4f1a-80f2-a2f17f18fde7"/>
		<resource>
			<Location>
				<id value="e3177167-40fc-4f1a-80f2-a2f17f18fde7"/>
				<meta>
					<profile value="https://fhir.hl7.org.uk/STU3/StructureDefinition/CareConnect-Location-1"/>
				</meta>
				<identifier>
					<system value="https://fhir.nhs.uk/Id/ods-site-code"/>
					<value value="RX3QJ"/>
				</identifier>
				<name value="DURHAM SOCIAL SERVICES"/>
			</Location>
		</resource>
	</entry>
</Bundle>
