<?xml version="1.0" encoding="UTF-8"?>
<Bundle xmlns="http://hl7.org/fhir">
	<id value="06c3a224-4883-11e8-842f-0ed5f89f718b"/>
	<meta>
		<profile value="https://fhir.nhs.uk/STU3/StructureDefinition/DCH-Bundle-1"/>
	</meta>
	<type value="message"/>
	<entry>
		<fullUrl value="urn:uuid:9d2e2cd9-ffe1-49c7-be43-f36e30564d3f"/>
		<resource>
			<MessageHeader>
				<id value="9d2e2cd9-ffe1-49c7-be43-f36e30564d3f"/>
				<meta>
					<profile value="https://fhir.nhs.uk/STU3/StructureDefinition/DCH-MessageHeader-1"/>
				</meta>
				<extension url="https://fhir.nhs.uk/STU3/StructureDefinition/Extension-DCH-MessageEventType-1">
					<valueCodeableConcept>
						<coding>
							<system value="https://fhir.nhs.uk/STU3/CodeSystem/DCH-MessageEventType-1"/>
							<code value="new"/>
							<display value="New event message"/>
						</coding>
					</valueCodeableConcept>
				</extension>
				<event>
					<system value="https://fhir.nhs.uk/STU3/CodeSystem/DCH-ChildHealthEventType-1"/>
					<code value="CH018"/>
					<display value="Observations"/>
				</event>
				<destination>
					<endpoint value="urn:nhs:addressing:asid:477121000325"/>
				</destination>	
				<timestamp value="2017-11-01T15:00:00+00:00"/>
				<source>
					<endpoint value="urn:nhs:addressing:asid:300000000161"/>
				</source>
				<responsible>
					<reference value="urn:uuid:33a33b58-648a-4453-b981-e21ea9ebc6ea"/>
					<display value="UNIVERSITY HOSPITAL OF NORTH DURHAM"/>
				</responsible>
				<focus>
					<reference value="urn:uuid:a3bec8bd-56af-4ca9-9eb9-889f3f9adecb"/>
				</focus>
			</MessageHeader>
		</resource>
	</entry>
	<!--Responsible for message content (Observations)-->
	<entry>
		<fullUrl value="urn:uuid:33a33b58-648a-4453-b981-e21ea9ebc6ea"/>
		<resource>
			<Organization>
				<id value="33a33b58-648a-4453-b981-e21ea9ebc6ea"/>
				<meta>
					<profile value="https://fhir.hl7.org.uk/STU3/StructureDefinition/CareConnect-Organization-1"/>
				</meta>
				<identifier>
					<system value="https://fhir.nhs.uk/Id/ods-organization-code"/>
					<value value="RX3EP"/>
				</identifier>
				<name value="UNIVERSITY HOSPITAL OF NORTH DURHAM"/>
				<address>
					<line value="NORTH ROAD"/>
					<city value="DURHAM"/>
					<district value="COUNTY DURHAM"/>
					<postalCode value="DH1 5TW"/>
				</address>
			</Organization>
		</resource>
	</entry>
	<!--Healthcare service used e.g GP, trust, etc..-->
	<entry>
		<fullUrl value="urn:uuid:5a293df7-b22f-41b6-8bf1-44248ea59edb"/>
		<resource>
			<HealthcareService>
				<id value="5a293df7-b22f-41b6-8bf1-44248ea59edb"/>
				<meta>
					<profile value="https://fhir.nhs.uk/STU3/StructureDefinition/DCH-HealthcareService-1"/>
				</meta>
				<providedBy>
					<reference value="urn:uuid:33a33b58-648a-4453-b981-e21ea9ebc6ea"/>
					<display value="UNIVERSITY HOSPITAL OF DURHAM"/>
				</providedBy>
				<type>
					<coding>
						<system value="http://snomed.info/sct"/>
						<code value="1060971000000108"/>
						<display value="General practice service"/>
					</coding>
				</type>
				<location>
					<reference value="urn:uuid:c30f1fdd-0247-4e38-ba12-0d26c5555ea3"/>
				</location>
				<telecom>
					<system value="phone"/>
					<value value="0191 1231234"/>
				</telecom>
			</HealthcareService>
		</resource>
	</entry>
	<!--Child Details (Jack Dawkins)-->
	<entry>
		<fullUrl value="urn:uuid:5d5845f3-398f-474b-af59-14882fc7b0ca"/>
		<resource>
			<Patient>
				<id value="5d5845f3-398f-474b-af59-14882fc7b0ca"/>
				<meta>
					<profile value="https://fhir.nhs.uk/STU3/StructureDefinition/CareConnect-DCH-Patient-1"/>
				</meta>
				<identifier>
					<extension url="https://fhir.hl7.org.uk/STU3/StructureDefinition/Extension-CareConnect-NHSNumberVerificationStatus-1">
						<valueCodeableConcept>
							<coding>
								<system value="https://fhir.hl7.org.uk/STU3/CodeSystem/CareConnect-NHSNumberVerificationStatus-1"/>
								<code value="01"/>
								<display value="Number present and verified"/>
							</coding>
						</valueCodeableConcept>
					</extension>
					<system value="https://fhir.nhs.uk/Id/nhs-number"/>
					<value value="9912003888"/>
				</identifier>
				<name>
					<use value="official"/>
					<family value="DAWKINS"/>
					<given value="Jack"/>
				</name>
				<gender value="male"/>
				<birthDate value="2013-10-12">
					<extension url="http://hl7.org/fhir/StructureDefinition/patient-birthTime">
						<valueDateTime value="2017-10-02T12:00:00+00:00"/>
					</extension>
				</birthDate>
				<address>
					<use value="home"/>
					<line value="4 Sandmoor Drive"/>
					<city value="DURHAM"/>
					<postalCode value="DH1 2TF"/>
				</address>
			</Patient>
		</resource>
	</entry>
	<!--Observations - Birth weight -->
	<entry>
		<fullUrl value="urn:uuid:13a292b7-5812-44bc-9879-935b723d788d"/>
		<resource>
			<Observation>
				<id value="13a292b7-5812-44bc-9879-935b723d788d"/>
				<meta>
					<profile value="https://fhir.nhs.uk/STU3/StructureDefinition/CareConnect-DCH-Weight-Observation-1"/>
				</meta>
				<status value="final"/>
				<category>
					<coding>
						<system value="http://hl7.org/fhir/observation-category"/>
						<code value="vital-signs"/>
					</coding>
				</category>
				<code>
					<coding>
						<system value="http://loinc.org"/>
						<code value="29463-7"/>
					</coding>
					<coding>
						<system value="http://snomed.info/sct"/>
						<code value="364589006"/>
						<display value="Birth weight"/>
					</coding>
				</code>
				<subject>
					<reference value="urn:uuid:5d5845f3-398f-474b-af59-14882fc7b0ca"/>
				</subject>
				<context>
					<reference value="urn:uuid:a3bec8bd-56af-4ca9-9eb9-889f3f9adecb"/>
				</context>
				<effectiveDateTime value="2017-11-01"/>
				<performer>
					<reference value="urn:uuid:1bcb0151-4ddf-4084-9c06-e8a31fdcf25b"/>
				</performer>
				<valueQuantity>
					<value value="3.5"/>
					<unit value="kilogram"/>
					<system value="http://unitsofmeasure.org"/>
					<code value="kg"/>
				</valueQuantity>
			</Observation>
		</resource>
	</entry>
	<!--Observations - Length of body -->
	<entry>
		<fullUrl value="urn:uuid:7950c693-e2a8-4d5b-a33e-bc9e84c8aaf1"/>
		<resource>
			<Observation>
				<id value="7950c693-e2a8-4d5b-a33e-bc9e84c8aaf1"/>
				<meta>
					<profile value="https://fhir.nhs.uk/STU3/StructureDefinition/CareConnect-DCH-Length-Observation-1"/>
				</meta>
				<status value="final"/>
				<category>
					<coding>
						<system value="http://hl7.org/fhir/observation-category"/>
						<code value="vital-signs"/>
					</coding>
				</category>
				<code>
					<coding>
						<system value="http://loinc.org"/>
						<code value="8306-3"/>
					</coding>
					<coding>
						<system value="http://snomed.info/sct"/>
						<code value="248334005"/>
						<display value="Length of body"/>
					</coding>
				</code>
				<subject>
					<reference value="urn:uuid:5d5845f3-398f-474b-af59-14882fc7b0ca"/>
				</subject>
				<context>
					<reference value="urn:uuid:a3bec8bd-56af-4ca9-9eb9-889f3f9adecb"/>
				</context>
				<effectiveDateTime value="2017-11-01"/>
				<performer>
					<reference value="urn:uuid:1bcb0151-4ddf-4084-9c06-e8a31fdcf25b"/>
				</performer>
				<valueQuantity>
					<value value="51"/>
					<unit value="centimeter"/>
					<system value="http://unitsofmeasure.org"/>
					<code value="cm"/>
				</valueQuantity>
			</Observation>
		</resource>
	</entry>
	<!--Observations -  Birth head circumference -->
	<entry>
		<fullUrl value="urn:uuid:9d1c939e-8d65-47b1-9927-c64f1ec1e1f9"/>
		<resource>
			<Observation>
				<id value="9d1c939e-8d65-47b1-9927-c64f1ec1e1f9"/>
				<meta>
					<profile value="https://fhir.nhs.uk/STU3/StructureDefinition/CareConnect-DCH-HeadCircumference-Observation-1"/>
				</meta>
				<status value="final"/>
				<category>
					<coding>
						<system value="http://hl7.org/fhir/observation-category"/>
						<code value="vital-signs"/>
					</coding>
				</category>
				<code>
					<coding>
						<system value="http://loinc.org"/>
						<code value="8287-5"/>
					</coding>
					<coding>
						<system value="http://snomed.info/sct"/>
						<code value="169876006"/>
						<display value="Birth head circumference"/>
					</coding>
				</code>
				<subject>
					<reference value="urn:uuid:5d5845f3-398f-474b-af59-14882fc7b0ca"/>
				</subject>
				<context>
					<reference value="urn:uuid:a3bec8bd-56af-4ca9-9eb9-889f3f9adecb"/>
				</context>
				<effectiveDateTime value="2017-11-01"/>
				<performer>
					<reference value="urn:uuid:1bcb0151-4ddf-4084-9c06-e8a31fdcf25b"/>
				</performer>
				<valueQuantity>
					<value value="34"/>
					<unit value="centimeter"/>
					<system value="http://unitsofmeasure.org"/>
					<code value="cm"/>
				</valueQuantity>
			</Observation>		</resource>
	</entry>
	<!--Observations -  Heart rate -->
	<entry>
		<fullUrl value="urn:uuid:cbb988c6-81dc-44f0-b372-dc87bd580977"/>
		<resource>
			<Observation>
				<id value="cbb988c6-81dc-44f0-b372-dc87bd580977"/>
				<meta>
					<profile value="https://fhir.hl7.org.uk/STU3/StructureDefinition/CareConnect-HeartRate-Observation-1"/>
				</meta>
				<status value="final"/>
				<category>
					<coding>
						<system value="http://hl7.org/fhir/observation-category"/>
						<code value="vital-signs"/>
					</coding>
				</category>
				<code>
					<coding>
						<system value="http://loinc.org"/>
						<code value="8867-4"/>
					</coding>
					<coding>
						<system value="http://snomed.info/sct"/>
						<code value="364075005"/>
						<display value="Heart rate"/>
					</coding>
				</code>
				<subject>
					<reference value="urn:uuid:5d5845f3-398f-474b-af59-14882fc7b0ca"/>
				</subject>
				<context>
					<reference value="urn:uuid:a3bec8bd-56af-4ca9-9eb9-889f3f9adecb"/>
				</context>
				<performer>
					<reference value="urn:uuid:1bcb0151-4ddf-4084-9c06-e8a31fdcf25b"/>
				</performer>
				<valueQuantity>
					<value value="150"/>
					<unit value="per minute"/>
					<system value="http://unitsofmeasure.org"/>
					<code value="/min"/>
				</valueQuantity>
			</Observation>
		</resource>
	</entry>
	<!--Observations -  Respiratory rate -->
	<entry>
		<fullUrl value="urn:uuid:5f641cce-6145-498a-9c57-53087fc371aa"/>
		<resource>
			<Observation>
				<id value="5f641cce-6145-498a-9c57-53087fc371aa"/>
				<meta>
					<profile value="https://fhir.hl7.org.uk/STU3/StructureDefinition/CareConnect-RespiratoryRate-Observation-1"/>
				</meta>
				<status value="final"/>
				<category>
					<coding>
						<system value="http://hl7.org/fhir/observation-category"/>
						<code value="vital-signs"/>
					</coding>
				</category>
				<code>
					<coding>
						<system value="http://loinc.org"/>
						<code value="9279-1"/>
					</coding>
					<coding>
						<system value="http://snomed.info/sct"/>
						<code value="86290005"/>
						<display value="Respiratory rate"/>
					</coding>
				</code>
				<subject>
					<reference value="urn:uuid:5d5845f3-398f-474b-af59-14882fc7b0ca"/>
				</subject>
				<context>
					<reference value="urn:uuid:a3bec8bd-56af-4ca9-9eb9-889f3f9adecb"/>
				</context>
				<performer>
					<reference value="urn:uuid:1bcb0151-4ddf-4084-9c06-e8a31fdcf25b"/>
				</performer>
				<valueQuantity>
					<value value="50"/>
					<unit value="per minute"/>
					<system value="http://unitsofmeasure.org"/>
					<code value="/min"/>
				</valueQuantity>
			</Observation>
		</resource>
	</entry>
	<!--Observations -  Blood pressure -->
	<entry>
		<fullUrl value="urn:uuid:380637df-555b-48b4-9bb7-90bfa09189b6"/>
		<resource>
			<Observation>
				<id value="380637df-555b-48b4-9bb7-90bfa09189b6"/>
				<meta>
					<profile value="https://fhir.hl7.org.uk/STU3/StructureDefinition/CareConnect-BloodPressure-Observation-1"/>
				</meta>
				<status value="final"/>
				<category>
					<coding>
						<system value="http://hl7.org/fhir/observation-category"/>
						<code value="vital-signs"/>
					</coding>
				</category>
				<code>
					<coding>
						<system value="http://loinc.org"/>
						<code value="85354-9"/>
					</coding>
					<coding>
						<system value="http://snomed.info/sct"/>
						<code value="75367002"/>
						<display value="Blood pressure"/>
					</coding>
				</code>
				<subject>
					<reference value="urn:uuid:5d5845f3-398f-474b-af59-14882fc7b0ca"/>
				</subject>
				<context>
					<reference value="urn:uuid:a3bec8bd-56af-4ca9-9eb9-889f3f9adecb"/>
				</context>
				<performer>
					<reference value="urn:uuid:1bcb0151-4ddf-4084-9c06-e8a31fdcf25b"/>
				</performer>
				<component>
					<code>
						<coding>
							<system value="http://loinc.org"/>
							<code value="8480-6"/>
						</coding>
						<coding>
							<system value="http://snomed.info/sct"/>
							<code value="72313002"/>
							<display value="Systolic arterial pressure"/>
						</coding>
					</code>
					<valueQuantity>
						<value value="64"/>
						<unit value="MilliMetersOfMercury"/>
						<system value="http://unitsofmeasure.org"/>
						<code value="mm[Hg]"/>
					</valueQuantity>
				</component>
				<component>
					<code>
						<coding>
							<system value="http://loinc.org"/>
							<code value="8462-4"/>
						</coding>
						<coding>
							<system value="http://snomed.info/sct"/>
							<code value="1091811000000102"/>
							<display value="Diastolic arterial pressure"/>
						</coding>
					</code>
					<valueQuantity>
						<value value="41"/>
						<unit value="MilliMetersOfMercury"/>
						<system value="http://unitsofmeasure.org"/>
						<code value="mm[Hg]"/>
					</valueQuantity>
				</component>
			</Observation>
		</resource>
	</entry>
	<!--Observations -  Body temperature -->
	<entry>
		<fullUrl value="urn:uuid:d3ac86e7-4d5c-4638-a191-2b7f0876065f"/>
		<resource>
			<Observation>
				<id value="d3ac86e7-4d5c-4638-a191-2b7f0876065f"/>
				<meta>
					<profile value="https://fhir.hl7.org.uk/STU3/StructureDefinition/CareConnect-BodyTemperature-Observation-1"/>
				</meta>
				<status value="final"/>
				<category>
					<coding>
						<system value="http://hl7.org/fhir/observation-category"/>
						<code value="vital-signs"/>
					</coding>
				</category>
				<code>
					<coding>
						<system value="http://loinc.org"/>
						<code value="8310-5"/>
					</coding>
					<coding>
						<system value="http://snomed.info/sct"/>
						<code value="386725007"/>
						<display value="Body temperature"/>
					</coding>
				</code>
				<subject>
					<reference value="urn:uuid:5d5845f3-398f-474b-af59-14882fc7b0ca"/>
				</subject>
				<context>
					<reference value="urn:uuid:a3bec8bd-56af-4ca9-9eb9-889f3f9adecb"/>
				</context>
				<performer>
					<reference value="urn:uuid:1bcb0151-4ddf-4084-9c06-e8a31fdcf25b"/>
				</performer>
				<valueQuantity>
					<value value="36.4"/>
					<unit value="DegreesCelsius"/>
					<system value="http://unitsofmeasure.org"/>
					<code value="Cel"/>
				</valueQuantity>
			</Observation>
		</resource>
	</entry>
	<!--Observations -  Hemoglobin saturation with oxygen -->
	<entry>
		<fullUrl value="urn:uuid:ac028e60-607e-40ed-874d-3497aca6e583"/>
		<resource>
			<Observation>
				<id value="ac028e60-607e-40ed-874d-3497aca6e583"/>
				<meta>
					<profile value="https://fhir.nhs.uk/STU3/StructureDefinition/CareConnect-OxygenSaturation-Observation-1"/>
				</meta>
				<status value="final"/>
				<category>
					<coding>
						<system value="http://hl7.org/fhir/observation-category"/>
						<code value="vital-signs"/>
					</coding>
				</category>
				<code>
					<coding>
						<system value="http://loinc.org"/>
						<code value="59408-5"/>
					</coding>
					<coding>
						<system value="http://snomed.info/sct"/>
						<code value="103228002"/>
						<display value="Hemoglobin saturation with oxygen"/>
					</coding>
				</code>
				<subject>
					<reference value="urn:uuid:5d5845f3-398f-474b-af59-14882fc7b0ca"/>
				</subject>
				<context>
					<reference value="urn:uuid:a3bec8bd-56af-4ca9-9eb9-889f3f9adecb"/>
				</context>
				<performer>
					<reference value="urn:uuid:1bcb0151-4ddf-4084-9c06-e8a31fdcf25b"/>
				</performer>
				<valueQuantity>
					<value value="95"/>
					<unit value="Percent"/>
					<system value="http://unitsofmeasure.org"/>
					<code value="%"/>
				</valueQuantity>
			</Observation>
		</resource>
	</entry>
	<!--Observations Encounter details-->
	<entry>
		<fullUrl value="urn:uuid:a3bec8bd-56af-4ca9-9eb9-889f3f9adecb"/>
		<resource>
			<Encounter>
				<id value="a3bec8bd-56af-4ca9-9eb9-889f3f9adecb"/>
				<meta>
					<profile value="https://fhir.nhs.uk/STU3/StructureDefinition/CareConnect-DCH-Encounter-1"/>
				</meta>
				<status value="finished"/>
				<type>
					<coding>
						<system value="https://fhir.nhs.uk/STU3/CodeSystem/DCH-ChildHealthEncounterType-1"/>
						<code value="003"/>
						<display value="Birth"/>
					</coding>
				</type>
				<subject>
					<reference value="urn:uuid:5d5845f3-398f-474b-af59-14882fc7b0ca"/>
					<display value="DAWKINS, Jack"/>
				</subject>
				<period>
					<start value="2013-10-12"/>
				</period>
				<location>
					<location>
						<reference value="urn:uuid:c30f1fdd-0247-4e38-ba12-0d26c5555ea3"/>
						<display value="UNIVERSITY HOSPITAL OF DURHAM"/>
					</location>
				</location>
				<serviceProvider>
					<reference value="urn:uuid:33a33b58-648a-4453-b981-e21ea9ebc6ea"/>
					<display value="UNIVERSITY HOSPITAL OF DURHAM"/>
				</serviceProvider>
			</Encounter>
		</resource>
	</entry>
	<!--Practitioner-->
	<entry>
		<fullUrl value="urn:uuid:1bcb0151-4ddf-4084-9c06-e8a31fdcf25b"/>
		<resource>
			<Practitioner>
				<id value="1bcb0151-4ddf-4084-9c06-e8a31fdcf25b"/>
				<meta>
					<profile value="https://fhir.nhs.uk/STU3/StructureDefinition/CareConnect-DCH-Practitioner-1"/>
				</meta>
				<identifier>
					<system value="https://fhir.nhs.uk/Id/sds-role-profile-id"/>
					<value value="PT2469"/>
				</identifier>
				<name>
					<family value="Bashir"/>
					<given value="Julian"/>
					<prefix value="Dr."/>
				</name>
			</Practitioner>
		</resource>
	</entry>
	<!--Practitioner Role-->
	<entry>
		<fullUrl value="urn:uuid:b7e3cc3a-9120-49fe-801c-2793b80ca922"/>
		<resource>
			<PractitionerRole>
				<id value="b7e3cc3a-9120-49fe-801c-2793b80ca922"/>
				<meta>
					<profile value="https://fhir.nhs.uk/STU3/StructureDefinition/CareConnect-DCH-PractitionerRole-1"/>
				</meta>
				<identifier>
					<system value="https://fhir.nhs.uk/Id/sds-role-profile-id"/>
					<value value="PT2468"/>
				</identifier>
				<practitioner>
					<reference value="urn:uuid:1bcb0151-4ddf-4084-9c06-e8a31fdcf25b"/>
				</practitioner>
				<organization>
					<reference value="urn:uuid:33a33b58-648a-4453-b981-e21ea9ebc6ea"/>
				</organization>
			</PractitionerRole>
		</resource>
	</entry>
	<!--Location where event took place-->
	<entry>
		<fullUrl value="urn:uuid:c30f1fdd-0247-4e38-ba12-0d26c5555ea3"/>
		<resource>
			<Location>
				<id value="c30f1fdd-0247-4e38-ba12-0d26c5555ea3"/>
				<meta>
					<profile value="https://fhir.hl7.org.uk/STU3/StructureDefinition/CareConnect-Location-1"/>
				</meta>
				<identifier>
					<system value="https://fhir.nhs.uk/Id/ods-site-code"/>
					<value value="RX3EP"/>
				</identifier>
			</Location>
		</resource>
	</entry>
</Bundle>
