<?xml version="1.0" encoding="UTF-8"?>
<Bundle xmlns="http://hl7.org/fhir">
	<id value="b33a7573-d7ff-4144-8d7e-9090ce9d2fea"/>
	<meta>
		<profile value="https://fhir.nhs.uk/STU3/StructureDefinition/DCH-Bundle-1"/>
	</meta>
	<type value="message"/>
	<!--Message Header-->
	<entry>
		<fullUrl value="urn:uuid:85c8a1c5-a8a1-41c9-bb99-20956fa66218"/>
		<resource>
			<MessageHeader>
				<id value="85c8a1c5-a8a1-41c9-bb99-20956fa66218"/>
				<meta>
					<profile value="https://fhir.nhs.uk/STU3/StructureDefinition/DCH-MessageHeader-1"/>
				</meta>
				<extension url="https://fhir.nhs.uk/STU3/StructureDefinition/Extension-DCH-MessageEventType-1">
					<valueCodeableConcept>
						<coding>
							<system value="https://fhir.nhs.uk/STU3/CodeSystem/DCH-MessageEventType-1"/>
							<code value="new"/>
							<display value="New event message"/>
						</coding>
					</valueCodeableConcept>
				</extension>
				<event>
					<system value="https://fhir.nhs.uk/STU3/CodeSystem/DCH-ChildHealthEventType-1"/>
					<code value="CH022"/>
					<display value="Parent Guardian or Personal Comment"/>
				</event>
				<destination>
					<endpoint value="urn:nhs:addressing:asid:477121000325"/>
				</destination>	
				<timestamp value="2017-11-01T15:00:00+00:00"/>
				<source>
					<endpoint value="urn:nhs-uk:addressing:ods:A83627"/>
				</source>
				<responsible>
					<reference value="urn:uuid:c481233c-4736-4f73-9afb-1653fd156996"/>
					<display value="DIGITAL CHLD HEALTH EPCHR"/>
				</responsible>
				<focus>
					<reference value="urn:uuid:12779557-9033-4213-876f-69a670cdf35d"/>
				</focus>
			</MessageHeader>
		</resource>
	</entry>
	<!--Responsible Org (MessageHeader.responsible)-->
	<entry>
		<fullUrl value="urn:uuid:c481233c-4736-4f73-9afb-1653fd156996"/>
		<resource>
			<Organization>
				<id value="c481233c-4736-4f73-9afb-1653fd156996"/>
				<meta>
					<profile value="https://fhir.hl7.org.uk/STU3/StructureDefinition/CareConnect-Organization-1"/>
				</meta>
				<identifier>
					<system value="https://fhir.nhs.uk/Id/ods-organization-code"/>
					<value value="C6D97"/>
				</identifier>
				<name value="DIGITAL CHLD HEALTH EPCHR"/>
			</Organization>
		</resource>
	</entry>
	<!--Healthcare service used e.g GP, trust, etc..-->
	<entry>
		<fullUrl value="urn:uuid:09394359-ea33-49ef-a2f5-1db78e38cbd0"/>
		<resource>
			<HealthcareService>
				<id value="09394359-ea33-49ef-a2f5-1db78e38cbd0"/>
				<meta>
					<profile value="https://fhir.nhs.uk/STU3/StructureDefinition/DCH-HealthcareService-1"/>
				</meta>
				<providedBy>
					<reference value="urn:uuid:c481233c-4736-4f73-9afb-1653fd156996"/>
					<display value="DIGITAL CHLD HEALTH EPCHR"/>
				</providedBy>
				<type>
					<coding>
						<system value="http://snomed.info/sct"/>
						<code value="829981000000108"/>
						<display value="Community child health service"/>
					</coding>
				</type>
				<location>
					<reference value="urn:uuid:e94fed7c-b528-48a2-ad51-81a40b2135a1"/>
				</location>
				<telecom>
					<system value="email"/>
					<value value="dch-epchr@nhs.net"/>
				</telecom>
			</HealthcareService>
		</resource>
	</entry>
	<!--Child Details (Jack Dawkins)-->
	<entry>
		<fullUrl value="urn:uuid:5d5845f3-398f-474b-af59-14882fc7b0ca"/>
		<resource>
			<Patient>
				<id value="5d5845f3-398f-474b-af59-14882fc7b0ca"/>
				<meta>
					<profile value="https://fhir.nhs.uk/STU3/StructureDefinition/CareConnect-DCH-Patient-1"/>
				</meta>
				<identifier>
					<extension url="https://fhir.hl7.org.uk/STU3/StructureDefinition/Extension-CareConnect-NHSNumberVerificationStatus-1">
						<valueCodeableConcept>
							<coding>
								<system value="https://fhir.hl7.org.uk/STU3/CodeSystem/CareConnect-NHSNumberVerificationStatus-1"/>
								<code value="01"/>
								<display value="Number present and verified"/>
							</coding>
						</valueCodeableConcept>
					</extension>
					<system value="https://fhir.nhs.uk/Id/nhs-number"/>
					<value value="9912003888"/>
				</identifier>
				<name>
					<use value="official"/>
					<family value="DAWKINS"/>
					<given value="Jack"/>
				</name>
				<gender value="male"/>
				<birthDate value="2013-10-12">
					<extension url="http://hl7.org/fhir/StructureDefinition/patient-birthTime">
						<valueDateTime value="2017-10-02T12:00:00+00:00"/>
					</extension>
				</birthDate>
				<address>
					<use value="home"/>
					<line value="4 Sandmoor Drive"/>
					<city value="DURHAM"/>
					<postalCode value="DH1 2TF"/>
				</address>
			</Patient>
		</resource>
	</entry>
	<!--Related person giving comment-->
	<entry>
		<fullUrl value="urn:uuid:8d99532e-08ce-4981-80c6-40ae6e9c7a47"/>
		<resource>
			<RelatedPerson>
				<id value="8d99532e-08ce-4981-80c6-40ae6e9c7a47"/>
				<meta>
					<profile value="https://fhir.nhs.uk/STU3/StructureDefinition/DCH-RelatedPerson-1"/>
				</meta>
				<patient>
					<reference value="urn:uuid:5d5845f3-398f-474b-af59-14882fc7b0ca"/>
					<display value="DAWKINS, Jack"/>
				</patient>
				<relationship>
					<coding>
						<system value="https://fhir.nhs.uk/STU3/CodeSystem/NHSDataDictionary-RelationshipToPersonForChildrenAndYoungPeople-1"/>
						<code value="BPM"/>
						<display value="Biological mother"/>
					</coding>
				</relationship>
				<name>
					<use value="official"/>
					<family value="DAWKINS"/>
					<given value="Jane"/>
				</name>
				<gender value="female"/>
				<birthDate value="1993-12-10">
					<extension url="http://hl7.org/fhir/StructureDefinition/patient-birthTime">
						<valueDateTime value="1993-12-02T10:00:00+00:00"/>
					</extension>
				</birthDate>
				<address>
					<use value="home"/>
					<line value="4 Sandmoor Drive"/>
					<city value="DURHAM"/>
					<postalCode value="DH1 2TF"/>
				</address>
			</RelatedPerson>
		</resource>
	</entry>
	<!--Parent, Guardian or Personal Comment-->
	<entry>
		<fullUrl value="urn:uuid:872c7730-1690-4e72-9434-0794dafa6ea9"/>
		<resource>
			<Communication>
				<id value="872c7730-1690-4e72-9434-0794dafa6ea9"/>
				<meta>
					<profile value="https://fhir.nhs.uk/STU3/StructureDefinition/DCH-InformationAndAdviceGiven-Communication-1"/>
				</meta>
				<status value="completed"/>
				<subject>
					<reference value="urn:uuid:5d5845f3-398f-474b-af59-14882fc7b0ca"/>
				</subject>
				<context>
					<reference value="urn:uuid:12779557-9033-4213-876f-69a670cdf35d"/>
				</context>
				<sent value="2018-02-20"/>
				<sender>
					<reference value="urn:uuid:8d99532e-08ce-4981-80c6-40ae6e9c7a47"/>
				</sender>
				<payload>
					<contentString value="Jack is showing good development and is a happy child."/>
				</payload>
			</Communication>
		</resource>
	</entry>
	<!--Encounter details-->
	<entry>
		<fullUrl value="urn:uuid:12779557-9033-4213-876f-69a670cdf35d"/>
		<resource>
			<Encounter>
				<id value="12779557-9033-4213-876f-69a670cdf35d"/>
				<meta>
					<profile value="https://fhir.nhs.uk/STU3/StructureDefinition/CareConnect-DCH-Encounter-1"/>
				</meta>
				<status value="finished"/>
				<type>
					<coding>
						<system value="https://fhir.nhs.uk/STU3/CodeSystem/DCH-ChildHealthEncounterType-1"/>
						<code value="0028"/>
						<display value="GP Appointment"/>
					</coding>
				</type>
				<subject>
					<reference value="urn:uuid:5d5845f3-398f-474b-af59-14882fc7b0ca"/>
					<display value="DAWKINS, Jack"/>
				</subject>
				<period>
					<start value="2018-01-29"/>
				</period>
				<location>
					<location>
						<reference value="urn:uuid:e94fed7c-b528-48a2-ad51-81a40b2135a1"/>
						<display value="DIGITAL CHLD HEALTH EPCHR"/>
					</location>
				</location>
				<serviceProvider>
					<reference value="urn:uuid:c481233c-4736-4f73-9afb-1653fd156996"/>
					<display value="DIGITAL CHLD HEALTH EPCHR"/>
				</serviceProvider>
			</Encounter>
		</resource>
	</entry>
	<!--Location where event took place-->
	<entry>
		<fullUrl value="urn:uuid:e94fed7c-b528-48a2-ad51-81a40b2135a1"/>
		<resource>
			<Location>
				<id value="e94fed7c-b528-48a2-ad51-81a40b2135a1"/>
				<meta>
					<profile value="https://fhir.hl7.org.uk/STU3/StructureDefinition/CareConnect-Location-1"/>
				</meta>
				<identifier>
					<system value="https://fhir.nhs.uk/Id/ods-site-code"/>
					<value value="C6D97"/>
				</identifier>
				<name value="DIGITAL CHLD HEALTH EPCHR"/>
			</Location>
		</resource>
	</entry>
</Bundle>
