<?xml version="1.0" encoding="UTF-8"?>
<Bundle xmlns="http://hl7.org/fhir">
	<id value="6e824ff8-9b0a-11e8-9eb6-529269fb1459"/>
	<meta>
		<profile value="https://fhir.nhs.uk/STU3/StructureDefinition/DCH-Bundle-1"/>
	</meta>
	<type value="message"/>
	<!--Message Header-->
	<entry>
		<fullUrl value="urn:uuid:6e825372-9b0a-11e8-9eb6-529269fb1459"/>
		<resource>
			<MessageHeader>
				<id value="6e825372-9b0a-11e8-9eb6-529269fb1459"/>
				<meta>
					<profile value="https://fhir.nhs.uk/STU3/StructureDefinition/DCH-MessageHeader-1"/>
				</meta>
				<extension url="https://fhir.nhs.uk/STU3/StructureDefinition/Extension-DCH-MessageEventType-1">
					<valueCodeableConcept>
						<coding>
							<system value="https://fhir.nhs.uk/STU3/CodeSystem/DCH-MessageEventType-1"/>
							<code value="new"/>
							<display value="New event message"/>
						</coding>
					</valueCodeableConcept>
				</extension>
				<event>
					<system value="https://fhir.nhs.uk/STU3/CodeSystem/DCH-ChildHealthEventType-1"/>
					<code value="CH027"/>
					<display value="Professional Contacts"/>
				</event>
				<destination>
					<endpoint value="urn:nhs:addressing:asid:477121000324"/>
				</destination>	
				<timestamp value="2018-11-30T09:00:00+00:00"/>
				<source>
					<endpoint value="urn:nhs:addressing:asid:300000000161"/>
				</source>
				<responsible>
					<reference value="urn:uuid:6e82558e-9b0a-11e8-9eb6-529269fb1459"/>
					<display value="SILVERDALE FAMILY PRACTICE"/>
				</responsible>
				<focus>
					<reference value="urn:uuid:6e825796-9b0a-11e8-9eb6-529269fb1459"/>
				</focus>
			</MessageHeader>
		</resource>
	</entry>
	<!--Responsible Org (MessageHeader.responsible)-->
	<entry>
		<fullUrl value="urn:uuid:6e82558e-9b0a-11e8-9eb6-529269fb1459"/>
		<resource>
			<Organization>
				<id value="6e82558e-9b0a-11e8-9eb6-529269fb1459"/>
				<meta>
					<profile value="https://fhir.hl7.org.uk/STU3/StructureDefinition/CareConnect-Organization-1"/>
				</meta>
				<identifier>
					<system value="https://fhir.nhs.uk/Id/ods-organization-code"/>
					<value value="A83627"/>
				</identifier>
				<name value="SILVERDALE FAMILY PRACTICE"/>
				<address>
					<line value="FRONT STREET"/>
					<line value="SOUTH HETTON"/>
					<city value="DURHAM"/>
					<district value="COUNTY DURHAM"/>
					<postalCode value="DH6 2TH"/>
				</address>
			</Organization>
		</resource>
	</entry>
	<!--Healthcare service used e.g GP, trust, etc..-->
	<entry>
		<fullUrl value="urn:uuid:6e825dae-9b0a-11e8-9eb6-529269fb1459"/>
		<resource>
			<HealthcareService>
				<id value="6e825dae-9b0a-11e8-9eb6-529269fb1459"/>
				<meta>
					<profile value="https://fhir.nhs.uk/STU3/StructureDefinition/DCH-HealthcareService-1"/>
				</meta>
				<providedBy>
					<reference value="urn:uuid:6e82558e-9b0a-11e8-9eb6-529269fb1459"/>
					<display value="SILVERDALE FAMILY PRACTICE"/>
				</providedBy>
				<type>
					<coding>
						<system value="http://snomed.info/sct"/>
						<code value="71078501000000104"/>
						<display value="Health visiting service"/>
					</coding>
				</type>
				<location>
					<reference value="urn:uuid:6e826024-9b0a-11e8-9eb6-529269fb1459"/>
				</location>
				<telecom>
					<system value="phone"/>
					<value value="0191 1231234"/>
				</telecom>
			</HealthcareService>
		</resource>
	</entry>
	<!--Child Details (Jack Dawkins)-->
	<entry>
		<fullUrl value="urn:uuid:6e82624a-9b0a-11e8-9eb6-529269fb1459"/>
		<resource>
			<Patient>
				<id value="6e82624a-9b0a-11e8-9eb6-529269fb1459"/>
				<meta>
					<profile value="https://fhir.nhs.uk/STU3/StructureDefinition/CareConnect-DCH-Patient-1"/>
				</meta>
				<identifier>
					<extension url="https://fhir.hl7.org.uk/STU3/StructureDefinition/Extension-CareConnect-NHSNumberVerificationStatus-1">
						<valueCodeableConcept>
							<coding>
								<system value="https://fhir.hl7.org.uk/STU3/CodeSystem/CareConnect-NHSNumberVerificationStatus-1"/>
								<code value="01"/>
								<display value="Number present and verified"/>
							</coding>
						</valueCodeableConcept>
					</extension>
					<system value="https://fhir.nhs.uk/Id/nhs-number"/>
					<value value="9912003888"/>
				</identifier>
				<name>
					<use value="official"/>
					<family value="DAWKINS"/>
					<given value="Jack"/>
				</name>
				<gender value="male"/>
				<birthDate value="2013-10-12">
					<extension url="http://hl7.org/fhir/StructureDefinition/patient-birthTime">
						<valueDateTime value="2017-10-02T12:00:00+00:00"/>
					</extension>
				</birthDate>
				<address>
					<use value="home"/>
					<line value="4 Sandmoor Drive"/>
					<city value="DURHAM"/>
					<postalCode value="DH1 2TF"/>
				</address>
			</Patient>
		</resource>
	</entry>
	<!--Encounter details-->
	<entry>
		<fullUrl value="urn:uuid:6e825796-9b0a-11e8-9eb6-529269fb1459"/>
		<resource>
			<Encounter>
				<id value="6e825796-9b0a-11e8-9eb6-529269fb1459"/>
				<meta>
					<profile value="https://fhir.nhs.uk/STU3/StructureDefinition/CareConnect-DCH-Encounter-1"/>
				</meta>
				<status value="finished"/>
				<type>
					<coding>
						<system value="https://fhir.nhs.uk/STU3/CodeSystem/DCH-ChildHealthEncounterType-1"/>
						<code value="0028"/>
						<display value="GP Appointment"/>
					</coding>
				</type>
				<subject>
					<reference value="urn:uuid:6e82624a-9b0a-11e8-9eb6-529269fb1459"/>
					<display value="DAWKINS, Jack"/>
				</subject>
				<period>
					<start value="2018-11-30"/>
				</period>
				<location>
					<location>
						<reference value="urn:uuid:6e826024-9b0a-11e8-9eb6-529269fb1459"/>
						<display value="Silverdale Family Practice"/>
					</location>
				</location>
				<serviceProvider>
					<reference value="urn:uuid:6e82558e-9b0a-11e8-9eb6-529269fb1459"/>
					<display value="SILVERDALE FAMILY PRACTICE"/>
				</serviceProvider>
			</Encounter>
		</resource>
	</entry>
	<!--Pro Contact Episode of Care-->
	<entry>
		<fullUrl value="urn:uuid:5812bce1-58c4-43c0-bd17-30d5a567d87e"/>
		<resource>
			<EpisodeOfCare>
				<id value="5812bce1-58c4-43c0-bd17-30d5a567d87e"/>
				<meta>
					<profile value="https://fhir.nhs.uk/STU3/StructureDefinition/DCH-ProfessionalContact-EpisodeOfCare-1"/>
				</meta>
				<extension url="https://fhir.nhs.uk/STU3/StructureDefinition/Extension-DCH-ProfessionalContactReason-1">
					<valueString value="Patient moving out of area"/>
				</extension>
				<status value="finished"/>
				<type>
					<coding>
						<system value="https://fhir.nhs.uk/STU3/CodeSystem/DCH-AssociationType-1"/>
						<code value="Temporary"/>
						<display value="Temporary"/>
					</coding>
				</type>
				<patient>
					<reference value="urn:uuid:6e82624a-9b0a-11e8-9eb6-529269fb1459"/>
				</patient>
				<period>
					<start value="2018-11-01T09:00:00+00:00"/>
					<end value="2018-11-20T09:00:00+00:00"/>
				</period>
				<careManager>
					<reference value="urn:uuid:ded73ce8-a8e6-4f73-8675-34bbe0e90a73"/>
				</careManager>
			</EpisodeOfCare>
		</resource>
	</entry>
	<!--Practitioner-->
	<entry>
		<fullUrl value="urn:uuid:ded73ce8-a8e6-4f73-8675-34bbe0e90a73"/>
		<resource>
			<Practitioner>
				<id value="ded73ce8-a8e6-4f73-8675-34bbe0e90a73"/>
				<meta>
					<profile value="https://fhir.nhs.uk/STU3/StructureDefinition/CareConnect-DCH-Practitioner-1"/>
				</meta>
				<identifier>
					<system value="https://fhir.nhs.uk/Id/sds-role-profile-id"/>
					<value value="PT2468"/>
				</identifier>
				<name>
					<family value="Bashir"/>
					<given value="Julian"/>
					<prefix value="Dr."/>
				</name>
			</Practitioner>
		</resource>
	</entry>
	<!--Practitioner Role-->
	<entry>
		<fullUrl value="urn:uuid:b7e3cc3a-9120-49fe-801c-2793b80ca922"/>
		<resource>
			<PractitionerRole>
				<id value="b7e3cc3a-9120-49fe-801c-2793b80ca922"/>
				<meta>
					<profile value="https://fhir.nhs.uk/STU3/StructureDefinition/CareConnect-DCH-PractitionerRole-1"/>
				</meta>
				<identifier>
					<system value="https://fhir.nhs.uk/Id/sds-role-profile-id"/>
					<value value="PT2468"/>
				</identifier>
				<practitioner>
					<reference value="urn:uuid:ded73ce8-a8e6-4f73-8675-34bbe0e90a73"/>
				</practitioner>
				<code>
					<coding>
						<system value="https://fhir.hl7.org.uk/STU3/CodeSystem/CareConnect-SDSJobRoleName-1"/>
						<code value="R0260"/>
						<display value="General Medical Practitioner"/>
					</coding>
					<coding>
						<system value="https://fhir.nhs.uk/STU3/CodeSystem/DCH-ProfessionalType-1"/>
						<code value="160"/>
						<display value="General Medical Practitioner"/>
					</coding>
				</code>
				<organization>
					<reference value="urn:uuid:6e82558e-9b0a-11e8-9eb6-529269fb1459"/>
				</organization>
			</PractitionerRole>
		</resource>
	</entry>
	<!--Location where event took place-->
	<entry>
		<fullUrl value="urn:uuid:6e826024-9b0a-11e8-9eb6-529269fb1459"/>
		<resource>
			<Location>
				<id value="6e826024-9b0a-11e8-9eb6-529269fb1459"/>
				<meta>
					<profile value="https://fhir.hl7.org.uk/STU3/StructureDefinition/CareConnect-Location-1"/>
				</meta>
				<identifier>
					<system value="https://fhir.nhs.uk/Id/ods-site-code"/>
					<value value="A83627"/>
				</identifier>
				<name value="Silverdale Family Practice"/>
				<managingOrganization>
					<reference value="urn:uuid:6e82558e-9b0a-11e8-9eb6-529269fb1459"/>
				</managingOrganization>
			</Location>
		</resource>
	</entry>
</Bundle>
