<?xml version="1.0" encoding="UTF-8"?>
<Bundle xmlns="http://hl7.org/fhir">
	<id value="2f7200aa-18b0-11e9-ab14-d663bd873d93"/>
	<meta>
		<profile value="https://fhir.nhs.uk/STU3/StructureDefinition/DCH-Bundle-1"/>
	</meta>
	<type value="message"/>
	<entry>
		<fullUrl value="urn:uuid:08464f8a-18b1-11e9-ab14-d663bd873d93"/>
		<resource>
			<MessageHeader>
				<id value="08464f8a-18b1-11e9-ab14-d663bd873d93"/>
				<meta>
					<profile value="https://fhir.nhs.uk/STU3/StructureDefinition/DCH-MessageHeader-1"/>
				</meta>
				<extension url="https://fhir.nhs.uk/STU3/StructureDefinition/Extension-DCH-MessageEventType-1">
					<valueCodeableConcept>
						<coding>
							<system value="https://fhir.nhs.uk/STU3/CodeSystem/DCH-MessageEventType-1"/>
							<code value="new"/>
							<display value="New event message"/>
						</coding>
					</valueCodeableConcept>
				</extension>
				<event>
					<system value="https://fhir.nhs.uk/STU3/CodeSystem/DCH-ChildHealthEventType-1"/>
					<code value="CH036"/>
					<display value="Medication Administration"/>
				</event>
				<destination>
					<endpoint value="urn:nhs:addressing:asid:477121000325"/>
				</destination>
				<timestamp value="2017-11-01T15:00:00+00:00"/>
				<source>
					<endpoint value="urn:nhs:addressing:asid:300000000161"/>
				</source>
				<responsible>
					<reference value="urn:uuid:436ef144-18b0-11e9-ab14-d663bd873d93"/>
					<display value="UNIVERSITY HOSPITAL OF NORTH DURHAM"/>
				</responsible>
				<focus>
					<reference value="urn:uuid:61be0090-18b0-11e9-ab14-d663bd873d93"/>
				</focus>
			</MessageHeader>
		</resource>
	</entry>
	<!--Responsible for message content (Birth)-->
	<entry>
		<fullUrl value="urn:uuid:436ef144-18b0-11e9-ab14-d663bd873d93"/>
		<resource>
			<Organization>
				<id value="436ef144-18b0-11e9-ab14-d663bd873d93"/>
				<meta>
					<profile value="https://fhir.hl7.org.uk/STU3/StructureDefinition/CareConnect-Organization-1"/>
				</meta>
				<identifier>
					<system value="https://fhir.nhs.uk/Id/ods-organization-code"/>
					<value value="RX3EP"/>
				</identifier>
				<name value="UNIVERSITY HOSPITAL OF NORTH DURHAM"/>
				<address>
					<line value="NORTH ROAD"/>
					<city value="DURHAM"/>
					<district value="COUNTY DURHAM"/>
					<postalCode value="DH1 5TW"/>
				</address>
			</Organization>
		</resource>
	</entry>
	<!--Healthcare service used e.g GP, trust, etc..-->
	<entry>
		<fullUrl value="urn:uuid:49fc0920-18b0-11e9-ab14-d663bd873d93"/>
		<resource>
			<HealthcareService>
				<id value="49fc0920-18b0-11e9-ab14-d663bd873d93"/>
				<meta>
					<profile value="https://fhir.nhs.uk/STU3/StructureDefinition/DCH-HealthcareService-1"/>
				</meta>
				<providedBy>
					<reference value="urn:uuid:436ef144-18b0-11e9-ab14-d663bd873d93"/>
					<display value="UNIVERSITY HOSPITAL OF DURHAM "/>
				</providedBy>
				<type>
					<coding>
						<system value="http://snomed.info/sct"/>
						<code value="714088003"/>
						<display value="Midwifery Service"/>
					</coding>
				</type>
				<location>
					<reference value="urn:uuid:5237c7d2-18b0-11e9-ab14-d663bd873d93"/>
				</location>
				<telecom>
					<system value="phone"/>
					<value value="0191 1231234"/>
				</telecom>
			</HealthcareService>
		</resource>
	</entry>
	<!--Baby Patient-->
	<entry>
		<fullUrl value="urn:uuid:5ab81c68-18b0-11e9-ab14-d663bd873d93"/>
		<resource>
			<Patient>
				<id value="5ab81c68-18b0-11e9-ab14-d663bd873d93"/>
				<meta>
					<profile value="https://fhir.nhs.uk/STU3/StructureDefinition/CareConnect-DCH-Patient-1"/>
				</meta>
				<identifier>
					<extension url="https://fhir.hl7.org.uk/STU3/StructureDefinition/Extension-CareConnect-NHSNumberVerificationStatus-1">
						<valueCodeableConcept>
							<coding>
								<system value="https://fhir.hl7.org.uk/STU3/CodeSystem/CareConnect-NHSNumberVerificationStatus-1"/>
								<code value="01"/>
								<display value="Number present and verified"/>
							</coding>
						</valueCodeableConcept>
					</extension>
					<system value="https://fhir.nhs.uk/Id/nhs-number"/>
					<value value="9912003888"/>
				</identifier>
				<name>
					<use value="official"/>
					<family value="DAWKINS"/>
					<given value="Jack"/>
				</name>
				<gender value="male"/>
				<birthDate value="2017-10-02">
					<extension url="http://hl7.org/fhir/StructureDefinition/patient-birthTime">
						<valueDateTime value="2017-10-02T20:12:00+00:00"/>
					</extension>
				</birthDate>
				<address>
					<use value="home"/>
					<line value="4 Sandmoor Drive"/>
					<city value="DURHAM"/>
					<postalCode value="DH1 2TF"/>
				</address>
				<multipleBirthInteger value="1"/>
			</Patient>
		</resource>
	</entry>
	<!--Encounter details-->
	<entry>
		<fullUrl value="urn:uuid:61be0090-18b0-11e9-ab14-d663bd873d93"/>
		<resource>
			<Encounter>
				<id value="61be0090-18b0-11e9-ab14-d663bd873d93"/>
				<meta>
					<profile value="https://fhir.nhs.uk/STU3/StructureDefinition/CareConnect-DCH-Encounter-1"/>
				</meta>
				<status value="finished"/>
				<subject>
					<reference value="urn:uuid:5ab81c68-18b0-11e9-ab14-d663bd873d93"/>
					<display value="DAWKINS, Jack"/>
				</subject>
				<period>
					<start value="2014-10-12"/>
				</period>
				<location>
					<location>
						<reference value="urn:uuid:5237c7d2-18b0-11e9-ab14-d663bd873d93"/>
					</location>
				</location>
				<serviceProvider>
					<reference value="urn:uuid:436ef144-18b0-11e9-ab14-d663bd873d93"/>
					<display value="UNIVERSITY HOSPITAL OF NORTH DURHAM"/>
				</serviceProvider>
			</Encounter>
		</resource>
	</entry>
	<!--Location where event took place (Maternity Site)-->
	<entry>
		<fullUrl value="urn:uuid:5237c7d2-18b0-11e9-ab14-d663bd873d93"/>
		<resource>
			<Location>
				<id value="5237c7d2-18b0-11e9-ab14-d663bd873d93"/>
				<meta>
					<profile value="https://fhir.nhs.uk/STU3/StructureDefinition/CareConnect-DCH-Delivery-Location-1"/>
				</meta>
				<identifier>
					<system value="https://fhir.nhs.uk/Id/ods-site-code"/>
					<value value="RX3EP"/>
				</identifier>
			</Location>
		</resource>
	</entry>
	<!--Practitioner from Encounter-->
	<entry>
		<fullUrl value="urn:uuid:66b2f600-18b0-11e9-ab14-d663bd873d93"/>
		<resource>
			<Practitioner>
				<id value="66b2f600-18b0-11e9-ab14-d663bd873d939"/>
				<meta>
					<profile value="https://fhir.nhs.uk/STU3/StructureDefinition/CareConnect-DCH-Practitioner-1"/>
				</meta>
				<name>
					<family value="BASHIR"/>
					<given value="Julian"/>
					<prefix value="Dr."/>
				</name>
			</Practitioner>
		</resource>
	</entry>
	<!--PractitionerRole from Encounter-->
	<entry>
		<fullUrl value="urn:uuid:9db5d050-18b0-11e9-ab14-d663bd873d93"/>
		<resource>
			<PractitionerRole>
				<id value="9db5d050-18b0-11e9-ab14-d663bd873d93"/>
				<meta>
					<profile value="https://fhir.nhs.uk/STU3/StructureDefinition/CareConnect-DCH-PractitionerRole-1"/>
				</meta>
				<practitioner>
					<reference value="urn:uuid:66b2f600-18b0-11e9-ab14-d663bd873d93"/>
					<display value="Dr. Julian BASHIR"/>
				</practitioner>
				<organization>
					<reference value="urn:uuid:436ef144-18b0-11e9-ab14-d663bd873d93"/>
					<display value="UNIVERSITY HOSPITAL OF NORTH DURHAM"/>
				</organization>
				<code>
					<coding>
						<system value="https://fhir.hl7.org.uk/STU3/CodeSystem/CareConnect-SDSJobRoleName-1"/>
						<code value="R0140"/>
						<display value="Senior House Officer"/>
					</coding>
				</code>
			</PractitionerRole>
		</resource>
	</entry>
	<entry>
		<fullUrl value="urn:uuid:bb445128-18b0-11e9-ab14-d663bd873d93"/>
		<resource>
			<MedicationAdministration>
				<id value="bb445128-18b0-11e9-ab14-d663bd873d93"/>
				<meta>
					<profile value="https://fhir.nhs.uk/STU3/StructureDefinition/DCH-MedicationAdministration-1"/>
				</meta>
				<status value="completed"/>
				<medicationReference>
					<reference value="urn:uuid:7e4f74fa-18b0-11e9-ab14-d663bd873d93"/>
				</medicationReference>
				<subject>
					<reference value="urn:uuid:5ab81c68-18b0-11e9-ab14-d663bd873d93"/>
				</subject>
				<context>
					<reference value="urn:uuid:61be0090-18b0-11e9-ab14-d663bd873d93"/>
				</context>
				<effectiveDateTime value="2017-11-01T14:45:00+00:00"/>
				<performer>
					<actor>
						<reference value="urn:uuid:66b2f600-18b0-11e9-ab14-d663bd873d93"/>
					</actor>
				</performer>
				<dosage>
					<text value="1 dose of 100mg paracetamol suspension administered by oral syringe"/>
					<route>
						<coding>
							<system value="http://snomed.info/sct"/>
							<code value="26643006"/>
							<display value="Oral route"/>
						</coding>
					</route>
					<dose>
						<value value="100"/>
						<unit value="ml"/>
						<system value="http://unitsofmeasure.org"/>
					</dose>
				</dosage>
			</MedicationAdministration>
		</resource>
	</entry>
	<entry>
		<fullUrl value="urn:uuid:7e4f74fa-18b0-11e9-ab14-d663bd873d93"/>
		<resource>
			<Medication>
				<id value="7e4f74fa-18b0-11e9-ab14-d663bd873d93"/>
				<meta>
					<profile value="https://fhir.nhs.uk/STU3/StructureDefinition/CareConnect-DCH-Medication-1"/>
				</meta>
				<code>
					<coding>
						<system value="http://snomed.info/sct"/>
						<code value="322246006"/>
						<display value="Paracetamol 100mg/ml oral solution sugar free"/>
					</coding>
				</code>
			</Medication>
		</resource>
	</entry>
	<entry>
		<fullUrl value="urn:uuid:ca959600-18b0-11e9-ab14-d663bd873d93"/>
		<resource>
			<MedicationAdministration>
				<id value="ca959600-18b0-11e9-ab14-d663bd873d93"/>
				<meta>
					<profile value="https://fhir.nhs.uk/STU3/StructureDefinition/DCH-MedicationAdministration-1"/>
				</meta>
				<status value="completed"/>
				<medicationReference>
					<reference value="urn:uuid:8da06a22-18b0-11e9-ab14-d663bd873d93"/>
				</medicationReference>
				<subject>
					<reference value="urn:uuid:5ab81c68-18b0-11e9-ab14-d663bd873d93"/>
				</subject>
				<context>
					<reference value="urn:uuid:61be0090-18b0-11e9-ab14-d663bd873d93"/>
				</context>
				<effectiveDateTime value="2017-11-01T14:45:58+00:00"/>
				<performer>
					<actor>
						<reference value="urn:uuid:66b2f600-18b0-11e9-ab14-d663bd873d93"/>
					</actor>
				</performer>
				<dosage>
					<text value="250ml Tetanus injection"/>
					<site>
						<coding>
							<system value="http://snomed.info/sct"/>
							<code value="1403006"/>
							<display value="Vastus lateralis muscle"/>
						</coding>
					</site>
					<route>
						<coding>
							<system value="http://snomed.info/sct"/>
							<code value="78421000"/>
							<display value="Intramuscular route"/>
						</coding>
					</route>
					<dose>
						<value value="250"/>
						<unit value="ml"/>
						<system value="http://unitsofmeasure.org"/>
					</dose>
				</dosage>
			</MedicationAdministration>
		</resource>
	</entry>
	<entry>
		<fullUrl value="urn:uuid:8da06a22-18b0-11e9-ab14-d663bd873d93"/>
		<resource>
			<Medication>
				<id value="8da06a22-18b0-11e9-ab14-d663bd873d93"/>
				<meta>
					<profile value="https://fhir.nhs.uk/STU3/StructureDefinition/CareConnect-DCH-Medication-1"/>
				</meta>
				<code>
					<coding>
						<system value="http://snomed.info/sct"/>
						<code value="9478811000001102"/>
						<display value="Tetanus immunoglobulin 250units/1ml solution for injection pre-filled syringes"/>
					</coding>
				</code>
			</Medication>
		</resource>
	</entry>
</Bundle>
