<Bundle xmlns="http://hl7.org/fhir">
 <id value="e6492db3-3788-4519-bebd-2bdf7d7236d8"/>
 <meta>
  <profile value="https://fhir.nhs.uk/STU3/StructureDefinition/ITK-Message-Bundle-1"/>
 </meta>
 <identifier>
  <system value="https://tools.ietf.org/html/rfc4122"/>
  <value value="a3940bf5-b82e-4c4f-9477-9bbe6861d634"/>
 </identifier>
 <type value="message"/>
 <entry>
  <fullUrl value="urn:uuid:a4409d7c-b613-477c-b623-87e60406c2f0"/>
  <resource>
   <MessageHeader>
    <id value="a4409d7c-b613-477c-b623-87e60406c2f0"/>
    <meta>
     <profile value="https://fhir.nhs.uk/STU3/StructureDefinition/ITK-MessageHeader-2"/>
    </meta>
    <extension url="https://fhir.nhs.uk/STU3/StructureDefinition/Extension-ITK-MessageHandling-2">
     <!--The value of this handling specification is dependant on the response pattern.-->
     <extension url="BusAckRequested">
      <valueBoolean value="true"/>
     </extension>
     <extension url="InfAckRequested">
      <valueBoolean value="true"/>
     </extension>
     <extension url="RecipientType">
      <valueCoding>
       <system value="https://fhir.nhs.uk/STU3/CodeSystem/ITK-RecipientType-1"/>
       <code value="FA"/>
       <display value="For Action"/>
      </valueCoding>
     </extension>
     <extension url="MessageDefinition">
      <valueReference>
       <reference value="https://fhir.nhs.uk/STU3/MessageDefinition/ITK-EDIS-MessageDefinition-1"/>
      </valueReference>
     </extension>
     <extension url="SenderReference">
      <valueString value="None"/>
     </extension>
     <extension url="LocalExtension">
      <valueString value="None"/>
     </extension>
    </extension>
    <event>
     <system value="https://fhir.nhs.uk/STU3/CodeSystem/ITK-MessageEvent-2"/>
     <code value="ITK003D"/>
     <display value="ITK eDischarge"/>
    </event>
    <receiver>
     <reference value="urn:uuid:c7d0d92f-4db9-4ab0-89c8-375afca971ad"/>
    </receiver>
    <sender>
     <reference value="urn:uuid:b86216fe-6a51-4687-af97-4b7d58154c39"/>
    </sender>
    <timestamp value="2017-01-23T10:10:16+00:00"/>
    <source>
     <endpoint value="NOROT003"/>
    </source>
    <focus>
     <reference value="urn:uuid:289f9d42-6f97-40d2-890a-d3d0af397ac7"/>
    </focus>
   </MessageHeader>
  </resource>
 </entry>
 <!--Practitioner-->
 <entry>
  <fullUrl value="urn:uuid:b86216fe-6a51-4687-af97-4b7d58154c39"/>
  <resource>
   <Practitioner>
    <id value="b86216fe-6a51-4687-af97-4b7d58154c39"/>
    <meta>
     <profile value="https://fhir.nhs.uk/STU3/StructureDefinition/CareConnect-ITK-Header-Practitioner-1"/>
    </meta>
    <identifier>
     <system value="https://fhir.nhs.uk/Id/sds-user-id"/>
     <value value="033345750518"/>
    </identifier>
    <name>
     <family value="Rastall"/>
     <given value="Paul"/>
     <prefix value="Dr"/>
    </name>
   </Practitioner>
  </resource>
 </entry>
 <!--Organization-->
 <entry>
  <fullUrl value="urn:uuid:c7d0d92f-4db9-4ab0-89c8-375afca971ad"/>
  <resource>
   <Organization>
    <id value="c7d0d92f-4db9-4ab0-89c8-375afca971ad"/>
    <meta>
     <profile value="https://fhir.nhs.uk/STU3/StructureDefinition/CareConnect-ITK-Header-Organization-1"/>
    </meta>
    <identifier>
     <system value="https://fhir.nhs.uk/Id/ods-organization-code"/>
     <value value="RY6"/>
    </identifier>
   </Organization>
  </resource>
 </entry>
 <entry>
  <fullUrl value="urn:uuid:289f9d42-6f97-40d2-890a-d3d0af397ac7"/>
  <resource>
   <!-- Payload is carried here but has been removed to facilitate viewing in a browser -->
   <Bundle>
   </Bundle>
  </resource>
 </entry>
</Bundle>