<?xml version="1.0" encoding="UTF-8"?>
<Bundle xmlns="http://hl7.org/fhir">
	<id value="e9ab79f4-ca79-440d-a125-80c7a8ecb460"/>
	<meta>
		<lastUpdated value="2017-05-19T19:00:00+00:00"/>
		<profile value="https://fhir.nhs.uk/STU3/StructureDefinition/ITK-Document-Bundle-1"/>
	</meta>
	<identifier>
		<system value="https://tools.ietf.org/html/rfc4122"/>
		<value value="f18f5330-a1e0-4f34-9e7d-3fcf6e3f0b8b"/>
	</identifier>
	<type value="document"/>
	<!--Outpatient Letter Composition-->
	<entry>
		<fullUrl value="urn:uuid:db3a110c-3a3d-457d-913b-1473f3be2e32"/>
		<resource>
			<Composition>
				<id value="db3a110c-3a3d-457d-913b-1473f3be2e32"/>
				<meta>
					<profile value="https://fhir.nhs.uk/STU3/StructureDefinition/CareConnect-ITK-OPL-Composition-1"/>
				</meta>
				<!-- Extension to carry details of the Correspondence Care Setting Type. -->
				<extension url="https://fhir.hl7.org.uk/STU3/StructureDefinition/Extension-CareConnect-CareSettingType-1">
					<valueCodeableConcept>
						<coding>
							<system value="http://snomed.info/sct"/>
							<code value="310160007"/>
							<display value="Ophthalmology service"/>
						</coding>
					</valueCodeableConcept>
				</extension>
				<identifier>
					<system value="https://tools.ietf.org/html/rfc4122"/>
					<value value="1de8bd94-a4ff-4d69-a504-b04dd1e526ea"/>
				</identifier>
				<status value="final"/>
				<type>
					<!--Outpatient letter-->
					<coding>
						<system value="http://snomed.info/sct"/>
						<code value="823681000000100"/>
						<display value="Outpatient letter"/>
					</coding>
				</type>
				<subject>
					<reference value="urn:uuid:dc3491e5-a4c0-4d7e-b879-7bd86133e61f"/>
				</subject>
				<!--Reference to the clinical encounter or type of care this documentation is associated with.-->
				<encounter>
					<reference value="urn:uuid:230a0ced-90c9-4171-93f4-22f9500acb65"/>
				</encounter>
				<!--The composition editing time, when the composition was last logically changed by the author.-->
				<date value="2017-05-19T16:00:00+00:00"/>
				<!--Identifies who is responsible for the information in the composition, not necessarily who typed it in-->
				<author>
					<reference value="urn:uuid:88f1ca61-0200-4943-a066-baf9a1570029"/>
				</author>
				<title value="Ophthalmology Service Outpatient Letter"/>
				<!--Identifies the organization responsible for ongoing maintenance of and access to the composition/document information.-->
				<custodian>
					<reference value="urn:uuid:0b589972-4d02-4636-a090-964fe1952aa9"/>
				</custodian>
				<!--Sections are included here-->
				<!--Allergies section-->
				<section>
					<title value="Allergies and adverse reactions"/>
					<!--SNOMED CT classification of section-->
					<code>
						<coding>
							<system value="http://snomed.info/sct"/>
							<code value="886921000000105"/>
							<display value="Allergies and adverse reactions"/>
						</coding>
					</code>
					<text>
						<status value="generated"/>
						<div xmlns="http://www.w3.org/1999/xhtml">
							<table width="100%">
								<tbody>
									<tr>
										<th>Causative agent</th>
										<td>No known allergy</td>
									</tr>
								</tbody>
							</table>
						</div>
					</text>
					<!--Reference to the allergy list-->
					<entry>
						<reference value="urn:uuid:a706d098-55f9-4fb1-ba0a-9aa6726afb97"/>
					</entry>
				</section>
				<section>
					<title value="Attendance details"/>
					<code>
						<coding>
							<system value="http://snomed.info/sct"/>
							<code value="1077881000000105"/>
							<display value="Attendance details"/>
						</coding>
					</code>
					<text>
						<status value="additional"/>
						<div xmlns="http://www.w3.org/1999/xhtml">
							<table width="100%">
								<tbody>
									<tr>
										<td colspan="2" style="width:100%">Dear Dr. O'Reilly,<br/>I had the pleasure of meeting Mr. Perrin in the orthoptic outpatient clinic today, referred by Michael McMonagle, Occupational Therapist, Head Injury Team, St Crispin's Hospital, Donaldstown, DO5 7TP</td>
									</tr>
									<tr>
										<th>Date and time of contact</th>
										<td>19-May-2017 10:00</td>
									</tr>
									<tr>
										<th>Contact type</th>
										<td>First attendance face to face</td>
									</tr>
									<tr>
										<th>Consultation method</th>
										<td>Face-to-face</td>
									</tr>
									<tr>
										<th>Responsible healthcare professional</th>
										<td>Rupert Rigsby (Orthoptist)</td>
									</tr>
									<tr>
										<th>Specialty</th>
										<td>Ophthalmology</td>
									</tr>
									<tr>
										<th>Service</th>
										<td>Ophthalmology</td>
									</tr>
									<tr>
										<th>Seen by</th>
										<td>
											<p>Prefix: Mr</p>
											<p>Given Name: Rupert</p>
											<p>Family Name: Rigsby</p>
											<p>Role: Orthoptist</p>
											<p>Tel: 01234 569879 (Work)</p>
										</td>
									</tr>
									<tr>
										<th>Outcome of outpatient attendance</th>
										<td>Discharged from Consultant's care (last attendance)</td>
									</tr>
								</tbody>
							</table>
						</div>
					</text>
					<!--Reference to the Encounter resource-->
					<entry>
						<reference value="urn:uuid:230a0ced-90c9-4171-93f4-22f9500acb65"/>
					</entry>
				</section>
				<!--Clinical summary section-->
				<section>
					<title value="Clinical summary"/>
					<!--SNOMED CT classification of section-->
					<code>
						<coding>
							<system value="http://snomed.info/sct"/>
							<code value="887181000000106"/>
							<display value="Clinical summary"/>
						</coding>
					</code>
					<text>
						<status value="additional"/>
						<div xmlns="http://www.w3.org/1999/xhtml">
							<table width="100%">
								<tbody>
									<tr>
										<th>Clinical summary</th>
										<td>Referred from the head injury team as patient experiencing diplopia. Diagnosed with a right IV nerve palsy. Fitted a prism on patients glasses to relieve diplopia.</td>
									</tr>
								</tbody>
							</table>
						</div>
					</text>
				</section>
				<!--Diagnoses section-->
				<section>
					<title value="Diagnoses"/>
					<code>
						<coding>
							<system value="http://snomed.info/sct"/>
							<code value="887161000000102"/>
							<display value="Diagnoses"/>
						</coding>
					</code>
					<text>
						<status value="generated"/>
						<div xmlns="http://www.w3.org/1999/xhtml">
							<table width="100%">
								<tbody>
									<tr>
										<th>Diagnosis name</th>
										<td>Fourth nerve palsy</td>
									</tr>
								</tbody>
							</table>
						</div>
					</text>
					<!--Reference to the Condition List-->
					<entry>
						<reference value="urn:uuid:ed25323b-1d74-47da-991e-e821c6b2b269"/>
					</entry>
				</section>
				<!--Distribution list-->
				<section>
					<title value="Distribution list"/>
					<code>
						<coding>
							<system value="http://snomed.info/sct"/>
							<code value="887261000000109"/>
							<display value="Distribution list"/>
						</coding>
					</code>
					<text>
						<status value="generated"/>
						<div xmlns="http://www.w3.org/1999/xhtml">
							<table width="100%">
								<tbody>
									<tr>
										<th>Name</th>
										<td>Dr C O'Reilly</td>
										<td>
											<p>Prefix: Dr</p>
											<p>Given Name: C</p>
											<p>Family Name: O'Reilly</p>
										</td>
									</tr>
									<tr>
										<th>Role</th>
										<td>General Medical Practitioner</td>
									</tr>
									<tr>
										<th>Organisation name</th>
										<td>Canvas Health Centre</td>
									</tr>
								</tbody>
							</table>
							<table width="100%">
								<tbody>
									<tr>
										<th>Name</th>
										<td>
											<p>Prefix: Mr</p>
											<p>Given Name: Michael</p>
											<p>Family Name: McMonagle</p>
										</td>
									</tr>
									<tr>
										<th>Role</th>
										<td>Occupational Therapist</td>
									</tr>
									<tr>
										<th>Organisation</th>
										<td>
											<p>Name: Head Injury Team</p>
										</td>
									</tr>
								</tbody>
							</table>
							<table width="100%">
								<tbody>
									<tr>
										<th>Name</th>
										<td>
											<p>Prefix: Mr</p>
											<p>Given Name: Reginald</p>
											<p>Family Name: Perrin</p>
										</td>
									</tr>
								</tbody>
							</table>
						</div>
					</text>
					<!--Reference to the practitioner and patient entries as recipients of information-->
					<entry>
						<reference value="urn:uuid:d4d154f9-7bbc-4760-8cac-00f7974f5e6c"/>
					</entry>
					<entry>
						<reference value="urn:uuid:23a936ae-65bb-48cf-9881-86e4b952289f"/>
					</entry>
					<entry>
						<reference value="urn:uuid:dc3491e5-a4c0-4d7e-b879-7bd86133e61f"/>
					</entry>
				</section>
				<!--Examination findings-->
				<section>
					<title value="Examination finding"/>
					<code>
						<coding>
							<system value="http://snomed.info/sct"/>
							<code value="715851000000102"/>
							<display value="Examination findings"/>
						</coding>
					</code>
					<text>
						<status value="additional"/>
						<div xmlns="http://www.w3.org/1999/xhtml">
							<table width="100%">
								<tbody>
									<tr>
										<th>Examination</th>
										<td>Ocular motility testing</td>
									</tr>
									<tr>
										<th>Examination findings</th>
										<td>Right hypertropia</td>
									</tr>
								</tbody>
							</table>
						</div>
					</text>
				</section>
				<!-- GP Practice-->
				<section>
					<title value="GP practice"/>
					<code>
						<coding>
							<system value="http://snomed.info/sct"/>
							<code value="886711000000101"/>
							<display value="GP practice"/>
						</coding>
					</code>
					<text>
						<status value="additional"/>
						<div xmlns="http://www.w3.org/1999/xhtml">
							<table width="100%">
								<tbody>
									<tr>
										<th>GP name</th>
										<td>
											<p>Prefix: Dr</p>
											<p>Given Name: C</p>
											<p>Family Name: O'Reilly</p>
										</td>
									</tr>
									<tr>
										<th>GP practice details</th>
										<td>
											<p>Name: Canvas Health Centre</p>
											<p>Address:</p>
											<p>Address Line: 27, Acacia Road</p>
											<p>Post Code: BM9 6PM</p>
										</td>
									</tr>
								</tbody>
							</table>
						</div>
					</text>
					<!--Reference to the Organisation entry as the source of information for this section-->
					<entry>
						<reference value="urn:uuid:3eb488e4-f1b1-433d-91ba-e9fe60550211"/>
					</entry>
				</section>
				<!--History section-->
				<section>
					<title value="History"/>
					<code>
						<coding>
							<system value="http://snomed.info/sct"/>
							<code value="717121000000105"/>
							<display value="History"/>
						</coding>
					</code>
					<text>
						<status value="generated"/>
						<div xmlns="http://www.w3.org/1999/xhtml">
							<table width="100%">
								<tbody>
									<tr>
										<th>Presenting complaints or issue</th>
										<td>Diplopia</td>
									</tr>
									<tr>
										<th>Presenting complaints or issue</th>
										<td>Abnormal ocular motility</td>
									</tr>
								</tbody>
							</table>
						</div>
					</text>
					<!--Reference to the Condition List-->
					<entry>
						<reference value="urn:uuid:ed25323b-1d74-47da-991e-e821c6b2b269"/>
					</entry>
				</section>
				<!-- Patient demographics-->
				<section>
					<title value="Patient demographics"/>
					<code>
						<coding>
							<system value="http://snomed.info/sct"/>
							<code value="886731000000109"/>
							<display value="Patient demographics"/>
						</coding>
					</code>
					<text>
						<status value="extensions"/>
						<div xmlns="http://www.w3.org/1999/xhtml">
							<table width="100%">
								<tbody>
									<tr>
										<th>Patient name</th>
										<td>
											<p>Prefix: Mr</p>
											<p>Given Name: Reginald</p>
											<p>Family Name: Perrin</p>
										</td>
									</tr>
									<tr>
										<th>Date of birth</th>
										<td>1 April 1983</td>
									</tr>
									<tr>
										<th>Gender</th>
										<td>Male</td>
									</tr>
									<tr>
										<th>NHS number</th>
										<td>9823543217</td>
									</tr>
									<tr>
										<th>Other identifier</th>
										<td>TL23764</td>
									</tr>
									<tr>
										<th>Patient address</th>
										<td>
											<p>Address Line: 5, Acacia Road</p>
											<p>Post Code: BM9 6PG</p>
										</td>
									</tr>
									<tr>
										<th>Patient email address</th>
										<td>reginald@perrin.net</td>
									</tr>
									<tr>
										<th>Patient telephone number</th>
										<td>Mobile: 077 6677 7766</td>
									</tr>
								</tbody>
							</table>
						</div>
					</text>
					<!--reference to further information carried in the patient resource-->
					<entry>
						<reference value="urn:uuid:dc3491e5-a4c0-4d7e-b879-7bd86133e61f"/>
					</entry>
				</section>
				<!--Person completing record-->
				<section>
					<title value="Person completing record"/>
					<code>
						<coding>
							<system value="http://snomed.info/sct"/>
							<code value="887231000000104"/>
							<display value="Person completing record"/>
						</coding>
					</code>
					<text>
						<status value="additional"/>
						<div xmlns="http://www.w3.org/1999/xhtml">
							<table width="100%">
								<tbody>
									<tr>
										<th>Name</th>
										<td>
											<p>Prefix: Mr</p>
											<p>Given Name: Rupert</p>
											<p>Family Name: Rigsby</p>
										</td>
										<td>Rupert Rigsby</td>
									</tr>
									<tr>
										<th>Role</th>
										<td>Orthoptist</td>
									</tr>
									<tr>
										<th>Professional identifier</th>
										<td>HCPC: OR00001</td>
									</tr>
									<tr>
										<th>Date and time completed</th>
										<td>19-May-2017 16:00</td>
									</tr>
									<tr>
										<th>Contact details</th>
										<td>Tel: 01234 569879 (Work)</td>
									</tr>
								</tbody>
							</table>
						</div>
					</text>
					<!--reference to further information carried in the practitioner resource-->
					<entry>
						<reference value="urn:uuid:88f1ca61-0200-4943-a066-baf9a1570029"/>
					</entry>
				</section>
				<!-- Plan and requested actions-->
				<section>
					<title value="Plan and requested actions"/>
					<code>
						<coding>
							<system value="http://snomed.info/sct"/>
							<code value="887201000000105"/>
							<display value="Plan and requested actions"/>
						</coding>
					</code>
					<text>
						<status value="additional"/>
						<div xmlns="http://www.w3.org/1999/xhtml">
							<table width="100%">
								<tbody>
									<tr>
										<th>Actions for healthcare professionals</th>
										<td>Referred to ophthalmologist by Rupert Rigsby on 19/05/17</td>
									</tr>
									<tr>
										<th>Actions for patient or their carer</th>
										<td>Patient has been advised to inform the DVLA regarding the diplopia and fresnel prism.</td>
									</tr>
								</tbody>
							</table>
						</div>
					</text>
				</section>
				<!--Procedures section-->
				<section>
					<title value="Procedures"/>
					<code>
						<coding>
							<system value="http://snomed.info/sct"/>
							<code value="887171000000109"/>
							<display value="Procedures"/>
						</coding>
					</code>
					<text>
						<status value="additional"/>
						<div xmlns="http://www.w3.org/1999/xhtml">
							<table width="100%">
								<tbody>
									<tr>
										<th>Procedure name</th>
										<td>Orthoptic treatment -prism in spectacles</td>
									</tr>
									<tr>
										<th>Comment</th>
										<td>Fitted a prism on patient’s glasses (right side)</td>
									</tr>
								</tbody>
							</table>
						</div>
					</text>
					<!--Reference to the Procedure List-->
					<entry>
						<reference value="urn:uuid:852358ef-0163-4eee-8835-029c25f004a3"/>
					</entry>
				</section>
				<section>
					<title value="Referrer details"/>
					<code>
						<coding>
							<system value="http://snomed.info/sct"/>
							<code value="1052891000000108"/>
							<display value="Referrer details"/>
						</coding>
					</code>
					<text>
						<status value="generated"/>
						<div xmlns="http://www.w3.org/1999/xhtml">
							<table width="100%">
								<tbody>
									<tr>
										<th>Referrer details</th>
										<td>
											<p>Name:</p>
											<p>Prefix: Mr</p>
											<p>Given Name: Michael</p>
											<p>Family Name: McMonagle</p>
											<p>Role: Occupational Therapist</p>
											<p>Organisation Name: Head Injury Team</p>
											<p>Address Line: St Crispin's Hospital</p>
											<p>City: Donaldstown</p>
											<p>Post Code: DO5 7TP</p>
										</td>
									</tr>
								</tbody>
							</table>
						</div>
					</text>
					<!--Reference to the practitioner resource-->
					<entry>
						<reference value="urn:uuid:d4d154f9-7bbc-4760-8cac-00f7974f5e6c"/>
					</entry>
					<!--Reference to the organisation resource-->
					<entry>
						<reference value="urn:uuid:784e2b8a-8daa-42f3-8e65-ffe84aee00a5"/>
					</entry>
				</section>
			</Composition>
		</resource>
	</entry>
	<!--Encounter Example 1-->
	<entry>
		<fullUrl value="urn:uuid:230a0ced-90c9-4171-93f4-22f9500acb65"/>
		<resource>
			<Encounter>
				<id value="230a0ced-90c9-4171-93f4-22f9500acb65"/>
				<meta>
					<profile value="https://fhir.nhs.uk/STU3/StructureDefinition/CareConnect-ITK-Encounter-1"/>
				</meta>
				<extension url="https://fhir.hl7.org.uk/STU3/StructureDefinition/Extension-CareConnect-OutcomeOfAttendance-1">
					<valueCodeableConcept>
						<coding>
							<system value="https://fhir.hl7.org.uk/STU3/CodeSystem/CareConnect-OutcomeOfAttendance-1"/>
							<code value="1"/>
							<display value="Discharged from Consultant's care (last attendance)"/>
						</coding>
					</valueCodeableConcept>
				</extension>
				<identifier>
					<system value="https://tools.ietf.org/html/rfc4122"/>
					<value value="c6fa7540-9044-45a5-a91f-9b41cbb2db5b"/>
				</identifier>
				<status value="finished"/>
				<class>
					<system value="http://hl7.org/fhir/v3-ActEncounterCode"/>
					<code value="AMB"/>
					<display value="ambulatory"/>
				</class>
				<!--Specific type of encounter-->
				<type>
					<coding>
						<system value="https://www.datadictionary.nhs.uk"/>
						<code value="1"/>
						<display value="First attendance face to face"/>
					</coding>
				</type>
				<!--Reference to the patient as the subject of the Encounter-->
				<subject>
					<reference value="urn:uuid:dc3491e5-a4c0-4d7e-b879-7bd86133e61f"/>
				</subject>
				<!--Reference to the participants present during the encounter-->
				<participant>
					<type>
						<coding>
							<system value="http://hl7.org/fhir/v3/ParticipationType"/>
							<code value="ATND"/>
							<display value="attender"/>
						</coding>
					</type>
					<individual>
						<reference value="urn:uuid:88f1ca61-0200-4943-a066-baf9a1570029"/>
					</individual>
				</participant>
				<period>
					<start value="2017-05-19T10:00:00+00:00"/>
					<end value="2017-05-19T11:00:00+00:00"/>
				</period>
			</Encounter>
		</resource>
	</entry>
	<entry>
		<fullUrl value="urn:uuid:a706d098-55f9-4fb1-ba0a-9aa6726afb97"/>
		<resource>
			<List>
				<id value="a706d098-55f9-4fb1-ba0a-9aa6726afb97"/>
				<meta>
					<profile value="https://fhir.nhs.uk/STU3/StructureDefinition/CareConnect-ITK-Allergy-List-1"/>
				</meta>
				<identifier>
					<system value="https://tools.ietf.org/html/rfc4122"/>
					<value value="53ca67c5-b6c2-4771-b87f-c9e628790366"/>
				</identifier>
				<status value="current"/>
				<mode value="snapshot"/>
				<code>
					<coding>
						<system value="http://snomed.info/sct"/>
						<code value="886921000000105"/>
						<display value="Allergies and adverse reactions"/>
					</coding>
				</code>
				<subject>
					<reference value="urn:uuid:dc3491e5-a4c0-4d7e-b879-7bd86133e61f"/>
				</subject>
				<encounter>
					<reference value="urn:uuid:230a0ced-90c9-4171-93f4-22f9500acb65"/>
				</encounter>
				<source>
					<reference value="urn:uuid:88f1ca61-0200-4943-a066-baf9a1570029"/>
				</source>
				<entry>
					<item>
						<reference value="urn:uuid:fd217de4-fb9d-485c-abfb-4db6c307fae3"/>
					</item>
				</entry>
			</List>
		</resource>
	</entry>
	<entry>
		<fullUrl value="urn:uuid:fd217de4-fb9d-485c-abfb-4db6c307fae3"/>
		<resource>
			<AllergyIntolerance>
				<id value="fd217de4-fb9d-485c-abfb-4db6c307fae3"/>
				<meta>
					<profile value="https://fhir.nhs.uk/STU3/StructureDefinition/CareConnect-ITK-AllergyIntolerance-1"/>
				</meta>
				<identifier>
					<system value="https://tools.ietf.org/html/rfc4122"/>
					<value value="0f8d2f4d-5598-4f69-b734-1d62a2bba66c"/>
				</identifier>
				<clinicalStatus value="active"/>
				<verificationStatus value="confirmed"/>
				<code>
					<coding>
						<system value="http://snomed.info/sct"/>
						<code value="716186003"/>
						<display value="No known allergy"/>
					</coding>
				</code>
				<patient>
					<reference value="urn:uuid:dc3491e5-a4c0-4d7e-b879-7bd86133e61f"/>
				</patient>
			</AllergyIntolerance>
		</resource>
	</entry>
	<!--Condition list-->
	<entry>
		<fullUrl value="urn:uuid:ed25323b-1d74-47da-991e-e821c6b2b269"/>
		<resource>
			<List>
				<id value="ed25323b-1d74-47da-991e-e821c6b2b269"/>
				<meta>
					<profile value="https://fhir.nhs.uk/STU3/StructureDefinition/CareConnect-ITK-Condition-List-1"/>
				</meta>
				<identifier>
					<system value="https://tools.ietf.org/html/rfc4122"/>
					<value value="0ab6e249-2677-46e2-9273-30a34a71b772"/>
				</identifier>
				<status value="current"/>
				<mode value="snapshot"/>
				<code>
					<coding>
						<system value="http://snomed.info/sct"/>
						<code value="887161000000102"/>
						<display value="Diagnoses"/>
					</coding>
				</code>
				<subject>
					<reference value="urn:uuid:dc3491e5-a4c0-4d7e-b879-7bd86133e61f"/>
				</subject>
				<encounter>
					<reference value="urn:uuid:230a0ced-90c9-4171-93f4-22f9500acb65"/>
				</encounter>
				<source>
					<reference value="urn:uuid:88f1ca61-0200-4943-a066-baf9a1570029"/>
				</source>
				<entry>
					<item>
						<reference value="urn:uuid:b45f2e3c-0aa9-4a14-828e-1eba1b0756a7"/>
					</item>
				</entry>
				<entry>
					<item>
						<reference value="urn:uuid:b26285f5-aea0-4b1f-b0eb-bfcaa6a5d15c"/>
					</item>
				</entry>
				<entry>
					<item>
						<reference value="urn:uuid:07b3cbda-5d14-4fed-b84a-91d77ab500c2"/>
					</item>
				</entry>
			</List>
		</resource>
	</entry>
	<!--Diagnoses 1-->
	<entry>
		<fullUrl value="urn:uuid:b45f2e3c-0aa9-4a14-828e-1eba1b0756a7"/>
		<resource>
			<Condition>
				<id value="b45f2e3c-0aa9-4a14-828e-1eba1b0756a7"/>
				<meta>
					<profile value="https://fhir.nhs.uk/STU3/StructureDefinition/CareConnect-ITK-Condition-1"/>
				</meta>
				<identifier>
					<system value="https://tools.ietf.org/html/rfc4122"/>
					<value value="bc8e4fc0-18dc-46b5-9f60-30857b24e42b"/>
				</identifier>
				<clinicalStatus value="active"/>
				<category>
					<coding>
						<system value="https://fhir.hl7.org.uk/STU3/CodeSystem/CareConnect-ConditionCategory-1"/>
						<code value="encounter-diagnosis"/>
						<display value="Encounter Diagnosis"/>
					</coding>
				</category>
				<code>
					<coding>
						<system value="http://snomed.info/sct"/>
						<code value="20610004"/>
						<display value="Fourth nerve palsy"/>
					</coding>
				</code>
				<subject>
					<reference value="urn:uuid:dc3491e5-a4c0-4d7e-b879-7bd86133e61f"/>
				</subject>
				<!--Reference to the encounter-->
				<context>
					<reference value="urn:uuid:230a0ced-90c9-4171-93f4-22f9500acb65"/>
				</context>
			</Condition>
		</resource>
	</entry>
	<!--Diagnoses 2-->
	<entry>
		<fullUrl value="urn:uuid:b26285f5-aea0-4b1f-b0eb-bfcaa6a5d15c"/>
		<resource>
			<Condition>
				<id value="b26285f5-aea0-4b1f-b0eb-bfcaa6a5d15c"/>
				<meta>
					<profile value="https://fhir.nhs.uk/STU3/StructureDefinition/CareConnect-ITK-Condition-1"/>
				</meta>
				<identifier>
					<system value="https://tools.ietf.org/html/rfc4122"/>
					<value value="455a8faf-ff7f-4b19-88a2-f9907fd34933"/>
				</identifier>
				<clinicalStatus value="active"/>
				<category>
					<coding>
						<system value="https://fhir.hl7.org.uk/STU3/CodeSystem/CareConnect-ConditionCategory-1"/>
						<code value="presenting-complaint"/>
						<display value="Presenting Complaint"/>
					</coding>
				</category>
				<code>
					<coding>
						<system value="http://snomed.info/sct"/>
						<code value="103252009"/>
						<display value="Abnormal ocular motility"/>
					</coding>
				</code>
				<subject>
					<reference value="urn:uuid:dc3491e5-a4c0-4d7e-b879-7bd86133e61f"/>
				</subject>
				<!--Reference to the encounter-->
				<context>
					<reference value="urn:uuid:230a0ced-90c9-4171-93f4-22f9500acb65"/>
				</context>
			</Condition>
		</resource>
	</entry>
	<!--Diagnoses 3-->
	<entry>
		<fullUrl value="urn:uuid:07b3cbda-5d14-4fed-b84a-91d77ab500c2"/>
		<resource>
			<Condition>
				<id value="07b3cbda-5d14-4fed-b84a-91d77ab500c2"/>
				<meta>
					<profile value="https://fhir.nhs.uk/STU3/StructureDefinition/CareConnect-ITK-Condition-1"/>
				</meta>
				<identifier>
					<system value="https://tools.ietf.org/html/rfc4122"/>
					<value value="f7d300b6-fb5a-4b99-979f-80af5a94885d"/>
				</identifier>
				<clinicalStatus value="active"/>
				<category>
					<coding>
						<system value="https://fhir.hl7.org.uk/STU3/CodeSystem/CareConnect-ConditionCategory-1"/>
						<code value="presenting-complaint"/>
						<display value="Presenting Complaint"/>
					</coding>
				</category>
				<code>
					<coding>
						<system value="http://snomed.info/sct"/>
						<code value="24982008"/>
						<display value="Diplopia"/>
					</coding>
				</code>
				<subject>
					<reference value="urn:uuid:dc3491e5-a4c0-4d7e-b879-7bd86133e61f"/>
				</subject>
				<!--Reference to the encounter-->
				<context>
					<reference value="urn:uuid:230a0ced-90c9-4171-93f4-22f9500acb65"/>
				</context>
			</Condition>
		</resource>
	</entry>
	<!-- Procedure List-->
	<entry>
		<fullUrl value="urn:uuid:852358ef-0163-4eee-8835-029c25f004a3"/>
		<resource>
			<List>
				<id value="852358ef-0163-4eee-8835-029c25f004a3"/>
				<meta>
					<profile value="https://fhir.nhs.uk/STU3/StructureDefinition/CareConnect-ITK-Procedure-List-1"/>
				</meta>
				<identifier>
					<system value="https://tools.ietf.org/html/rfc4122"/>
					<value value="68dc133c-368d-40ff-b7f9-d361026a22ec"/>
				</identifier>
				<status value="current"/>
				<mode value="snapshot"/>
				<code>
					<coding>
						<system value="http://snomed.info/sct"/>
						<code value="887171000000109"/>
						<display value="Procedures"/>
					</coding>
				</code>
				<subject>
					<reference value="urn:uuid:dc3491e5-a4c0-4d7e-b879-7bd86133e61f"/>
				</subject>
				<encounter>
					<reference value="urn:uuid:230a0ced-90c9-4171-93f4-22f9500acb65"/>
				</encounter>
				<source>
					<reference value="urn:uuid:88f1ca61-0200-4943-a066-baf9a1570029"/>
				</source>
				<entry>
					<item>
						<reference value="urn:uuid:4303abe7-0966-49b1-a89d-4d607189124f"/>
					</item>
				</entry>
			</List>
		</resource>
	</entry>
	<!--Procedure Example-->
	<entry>
		<fullUrl value="urn:uuid:4303abe7-0966-49b1-a89d-4d607189124f"/>
		<resource>
			<Procedure>
				<id value="4303abe7-0966-49b1-a89d-4d607189124f"/>
				<meta>
					<profile value="https://fhir.nhs.uk/STU3/StructureDefinition/CareConnect-ITK-Procedure-1"/>
				</meta>
				<identifier>
					<system value="https://tools.ietf.org/html/rfc4122"/>
					<value value="a82c7d64-ff0e-4c4f-a7c5-7ede593bd8fb"/>
				</identifier>
				<status value="completed"/>
				<code>
					<coding>
						<system value="http://snomed.info/sct"/>
						<code value="419154004"/>
						<display value="Orthoptic treatment -prism in spectacles"/>
					</coding>
				</code>
				<subject>
					<reference value="urn:uuid:dc3491e5-a4c0-4d7e-b879-7bd86133e61f"/>
				</subject>
			</Procedure>
		</resource>
	</entry>
	<!--Patient-Example-1-->
	<entry>
		<fullUrl value="urn:uuid:dc3491e5-a4c0-4d7e-b879-7bd86133e61f"/>
		<resource>
			<Patient>
				<id value="dc3491e5-a4c0-4d7e-b879-7bd86133e61f"/>
				<meta>
					<profile value="https://fhir.hl7.org.uk/STU3/StructureDefinition/CareConnect-Patient-1"/>
				</meta>
				<identifier>
					<extension url="https://fhir.hl7.org.uk/STU3/StructureDefinition/Extension-CareConnect-NHSNumberVerificationStatus-1">
						<valueCodeableConcept>
							<coding>
								<system value="https://fhir.hl7.org.uk/STU3/CodeSystem/CareConnect-NHSNumberVerificationStatus-1"/>
								<code value="01"/>
								<display value="Number present and verified"/>
							</coding>
						</valueCodeableConcept>
					</extension>
					<system value="https://fhir.nhs.uk/Id/nhs-number"/>
					<value value="9823543217"/>
				</identifier>
				<identifier>
					<system value="https://fhir.nhs.uk/Id/local-patient-identifier"/>
					<value value="TL23764"/>
				</identifier>
				<name>
					<use value="official"/>
					<family value="Perrin"/>
					<given value="Reginald"/>
					<prefix value="Mr"/>
				</name>
				<telecom>
					<system value="phone"/>
					<value value="077 6677 7766"/>
					<use value="mobile"/>
				</telecom>
				<telecom>
					<system value="email"/>
					<value value="reginald@perrin.net"/>
				</telecom>
				<gender value="male"/>
				<birthDate value="1983-04-01"/>
				<address>
					<line value="5 Acacia Road"/>
					<postalCode value="BM9 6PG"/>
				</address>
			</Patient>
		</resource>
	</entry>
	<!--Practitioner-Example-1-->
	<entry>
		<fullUrl value="urn:uuid:88f1ca61-0200-4943-a066-baf9a1570029"/>
		<resource>
			<Practitioner>
				<id value="88f1ca61-0200-4943-a066-baf9a1570029"/>
				<meta>
					<profile value="https://fhir.hl7.org.uk/STU3/StructureDefinition/CareConnect-Practitioner-1"/>
				</meta>
				<identifier>
					<system value="https://fhir.hl7.org.uk/Id/hcpc-number"/>
					<value value="OR00001"/>
				</identifier>
				<name>
					<family value="Rigsby"/>
					<given value="Rupert "/>
					<prefix value="Mr"/>
				</name>
				<telecom>
					<system value="phone"/>
					<value value="01234 569879"/>
					<use value="work"/>
				</telecom>
			</Practitioner>
		</resource>
	</entry>
	<!--Practitioner-Example-2-->
	<entry>
		<fullUrl value="urn:uuid:23a936ae-65bb-48cf-9881-86e4b952289f"/>
		<resource>
			<Practitioner>
				<id value="23a936ae-65bb-48cf-9881-86e4b952289f"/>
				<meta>
					<profile value="https://fhir.hl7.org.uk/STU3/StructureDefinition/CareConnect-Practitioner-1"/>
				</meta>
				<identifier>
					<system value="https://fhir.nhs.uk/Id/local-practitioner-identifier"/>
					<value value="8122472"/>
				</identifier>
				<name>
					<family value="O'Reilly"/>
					<given value="C"/>
					<prefix value="Dr"/>
				</name>
			</Practitioner>
		</resource>
	</entry>
	<!--Practitioner role - General Medical Practitioner-->
	<entry>
		<fullUrl value="urn:uuid:fcc956a8-a96f-4bd5-b0b2-196bbb1f0f66"/>
		<resource>
			<PractitionerRole>
				<id value="fcc956a8-a96f-4bd5-b0b2-196bbb1f0f66"/>
				<meta>
					<profile value="https://fhir.hl7.org.uk/STU3/StructureDefinition/CareConnect-PractitionerRole-1"/>
				</meta>
				<practitioner>
					<reference value="urn:uuid:23a936ae-65bb-48cf-9881-86e4b952289f"/>
				</practitioner>
				<organization>
					<reference value="urn:uuid:3eb488e4-f1b1-433d-91ba-e9fe60550211"/>
				</organization>
				<code>
					<coding>
						<system value="https://fhir.hl7.org.uk/STU3/CodeSystem/CareConnect-SDSJobRoleName-1"/>
						<code value="R0260"/>
						<display value="General Medical Practitioner"/>
					</coding>
				</code>
			</PractitionerRole>
		</resource>
	</entry>
	<!--Practitioner-Example-3, Occupational Therapist-->
	<entry>
		<fullUrl value="urn:uuid:d4d154f9-7bbc-4760-8cac-00f7974f5e6c"/>
		<resource>
			<Practitioner>
				<id value="d4d154f9-7bbc-4760-8cac-00f7974f5e6c"/>
				<meta>
					<profile value="https://fhir.hl7.org.uk/STU3/StructureDefinition/CareConnect-Practitioner-1"/>
				</meta>
				<identifier>
					<system value="https://fhir.nhs.uk/Id/sds-user-id"/>
					<value value="033355750510"/>
				</identifier>
				<name>
					<family value="McMonagle"/>
					<given value="Michael "/>
					<prefix value="Mr"/>
				</name>
			</Practitioner>
		</resource>
	</entry>
	<!--Practitioner role - Occupational Therapist-->
	<entry>
		<fullUrl value="urn:uuid:2e91ae72-2e6a-46de-86c4-95d9a3025f5f"/>
		<resource>
			<PractitionerRole>
				<id value="2e91ae72-2e6a-46de-86c4-95d9a3025f5f"/>
				<meta>
					<profile value="https://fhir.hl7.org.uk/STU3/StructureDefinition/CareConnect-PractitionerRole-1"/>
				</meta>
				<practitioner>
					<reference value="urn:uuid:d4d154f9-7bbc-4760-8cac-00f7974f5e6c"/>
				</practitioner>
				<organization>
					<reference value="urn:uuid:784e2b8a-8daa-42f3-8e65-ffe84aee00a5"/>
				</organization>
				<code>
					<coding>
						<system value="https://fhir.hl7.org.uk/STU3/CodeSystem/CareConnect-SDSJobRoleName-1"/>
						<code value="R0950"/>
						<display value="Occupational Therapist"/>
					</coding>
				</code>
			</PractitionerRole>
		</resource>
	</entry>
	<!--Practitioner roles -Consultant-->
	<entry>
		<fullUrl value="urn:uuid:cd734ce9-468d-4a36-8dac-e453aa4747e0"/>
		<resource>
			<PractitionerRole>
				<id value="cd734ce9-468d-4a36-8dac-e453aa4747e0"/>
				<meta>
					<profile value="https://fhir.hl7.org.uk/STU3/StructureDefinition/CareConnect-PractitionerRole-1"/>
				</meta>
				<practitioner>
					<reference value="urn:uuid:88f1ca61-0200-4943-a066-baf9a1570029"/>
				</practitioner>
				<organization>
					<reference value="urn:uuid:0b589972-4d02-4636-a090-964fe1952aa9"/>
				</organization>
				<code>
					<coding>
						<system value="https://fhir.hl7.org.uk/STU3/CodeSystem/CareConnect-SDSJobRoleName-1"/>
						<code value="R0990"/>
						<display value="Orthoptist"/>
					</coding>
				</code>
				<specialty>
					<coding>
						<system value="http://snomed.info/sct"/>
						<code value="394594003"/>
						<display value="Ophthalmology"/>
					</coding>
				</specialty>
			</PractitionerRole>
		</resource>
	</entry>
	<!--Organization-Example-1-->
	<entry>
		<fullUrl value="urn:uuid:3eb488e4-f1b1-433d-91ba-e9fe60550211"/>
		<resource>
			<Organization>
				<id value="3eb488e4-f1b1-433d-91ba-e9fe60550211"/>
				<meta>
					<profile value="https://fhir.hl7.org.uk/STU3/StructureDefinition/CareConnect-Organization-1"/>
				</meta>
				<identifier>
					<system value="https://fhir.nhs.uk/Id/ods-organization-code"/>
					<value value="A111111"/>
				</identifier>
				<name value="Canvas Health Centre"/>
				<address>
					<line value="27 Acacia Road"/>
					<postalCode value="BM9 6PM"/>
				</address>
			</Organization>
		</resource>
	</entry>
	<!--Organization-Example-2-->
	<entry>
		<fullUrl value="urn:uuid:0b589972-4d02-4636-a090-964fe1952aa9"/>
		<resource>
			<Organization>
				<id value="0b589972-4d02-4636-a090-964fe1952aa9"/>
				<meta>
					<profile value="https://fhir.hl7.org.uk/STU3/StructureDefinition/CareConnect-Organization-1"/>
				</meta>
				<identifier>
					<system value="https://fhir.nhs.uk/Id/ods-organization-code"/>
					<value value="RX0001"/>
				</identifier>
				<name value="Ophthalmology/orthoptics clinic"/>
				<telecom>
					<system value="phone"/>
					<value value="01234 567890"/>
					<use value="work"/>
				</telecom>
				<telecom>
					<system value="email"/>
					<value value="orthde@stcrispins.nhs.uk"/>
					<use value="work"/>
				</telecom>
				<address>
					<line value="Ophthalmology/orthoptics clinic"/>
					<line value="St Crispin's Hospital"/>
					<line value="Donaldstown"/>
					<postalCode value="DO5 7TP"/>
				</address>
			</Organization>
		</resource>
	</entry>
	<!--Organization-Example-3-->
	<entry>
		<fullUrl value="urn:uuid:784e2b8a-8daa-42f3-8e65-ffe84aee00a5"/>
		<resource>
			<Organization>
				<id value="784e2b8a-8daa-42f3-8e65-ffe84aee00a5"/>
				<meta>
					<profile value="https://fhir.hl7.org.uk/STU3/StructureDefinition/CareConnect-Organization-1"/>
				</meta>
				<identifier>
					<system value="https://fhir.nhs.uk/Id/ods-organization-code"/>
					<value value="RX0000"/>
				</identifier>
				<name value="Head Injury Team"/>
				<address>
					<line value="St Crispin's Hospital"/>
					<city value="Donaldstown"/>
					<postalCode value="DO5 7TP"/>
				</address>
			</Organization>
		</resource>
	</entry>
</Bundle>
