<?xml version="1.0" encoding="UTF-8"?>
<Bundle xmlns="http://hl7.org/fhir">
	<id value="a5b3144e-95ef-443b-97ed-a143e34f170a"/>
	<meta>
		<versionId value="1d0acfe9-d439-4c9b-9246-95f3150c32e9"/>
		<lastUpdated value="2018-11-08T13:46:37.969+00:00"/>
	</meta>
	<type value="searchset"/>
	<total value="1"/>
	<entry>
		<fullUrl value="[baseURL]/Observation/c94a3384-44b6-48a7-95ae-bcf1f1eb8221"/>
		<resource>
			<Observation xmlns="http://hl7.org/fhir">
				<id value="c94a3384-44b6-48a7-95ae-bcf1f1eb8221"/>
				<meta>
					<profile value="https://fhir.nhs.uk/STU3/StructureDefinition/CareConnect-NEWS2-Observation-1"/>
				</meta>
				<status value="final"/>
				<category>
					<coding>
						<system value="http://hl7.org/fhir/observation-category"/>
						<code value="survey"/>
						<display value="Survey"/>
					</coding>
				</category>
				<code>
					<coding>
						<system value="http://snomed.info/sct"/>
						<code value="1104051000000101"/>
						<display value="Royal College of Physicians NEWS2 (National Early Warning Score 2) total score"/>
					</coding>
				</code>
				<subject>
					<reference value="Patient/4f78d392-c9e0-4f1f-9ab6-57d387838690"/>
				</subject>
				<effectiveDateTime value="2018-10-04T14:17:59+01:00"/>
				<performer>
					<reference value="Performer/2360aba6-8561-4a22-bbbf-afc08e750146"/>
				</performer>
				<performer>
					<reference value="Organization/cd5f7770-6249-4f5d-ad8e-d0bb1446a4d9"/>
				</performer>
				<valueQuantity>
					<value value="6"/>
				</valueQuantity>
			</Observation>
		</resource>
	</entry>
	<entry>
		<fullUrl value="[baseURL]/Practitioner/2360aba6-8561-4a22-bbbf-afc08e750146"/>
		<resource>
			<Practitioner>
				<id value="2360aba6-8561-4a22-bbbf-afc08e750146"/>
				<meta>
					<profile value="https://fhir.hl7.org.uk/STU3/StructureDefinition/CareConnect-Practitioner-1"/>
				</meta>
				<identifier>
					<system value="https://fhir.hl7.org.uk/Id/gmc-number"/>
					<value value="6122477"/>
				</identifier>
				<name>
					<family value="Rastall"/>
					<given value="Paul"/>
					<prefix value="Dr"/>
				</name>
				<telecom>
					<system value="phone"/>
					<value value="01136323200"/>
					<use value="work"/>
				</telecom>
				<gender value="male"/>
			</Practitioner>
		</resource>
	</entry>
	<entry>
		<fullUrl value="[baseURL]/Organization/cd5f7770-6249-4f5d-ad8e-d0bb1446a4d9"/>
		<resource>
			<Organization>
				<id value="cd5f7770-6249-4f5d-ad8e-d0bb1446a4d9"/>
				<meta>
					<profile value="https://fhir.hl7.org.uk/STU3/StructureDefinition/CareConnect-Organization-1"/>
				</meta>
				<identifier>
					<system value="https://fhir.nhs.uk/Id/ods-organization-code"/>
					<value value="ABC123"/>
				</identifier>
				<name value="ANYTOWN ROYAL INFIRMARY"/>
				<telecom>
					<system value="phone"/>
					<value value="01134875516"/>
				</telecom>
				<address>
					<line value="1 High Street"/>
					<city value="ANYTOWN"/>
					<postalCode value="LS1 9AM"/>
				</address>
			</Organization>
		</resource>
	</entry>
	<entry>
		<fullUrl value="[baseURL]/Patient/4f78d392-c9e0-4f1f-9ab6-57d387838690"/>
		<resource>
			<Patient>
				<id value="4f78d392-c9e0-4f1f-9ab6-57d387838690"/>
				<meta>
					<profile value="https://fhir.hl7.org.uk/STU3/StructureDefinition/CareConnect-Patient-1"/>
				</meta>
				<identifier>
					<extension url="https://fhir.hl7.org.uk/STU3/StructureDefinition/Extension-CareConnect-NHSNumberVerificationStatus-1">
						<valueCodeableConcept>
							<coding>
								<system value="https://fhir.hl7.org.uk/STU3/CodeSystem/CareConnect-NHSNumberVerificationStatus-1"/>
								<code value="01"/>
								<display value="Number present and verified"/>
							</coding>
						</valueCodeableConcept>
					</extension>
					<system value="https://fhir.nhs.uk/Id/nhs-number"/>
					<value value="2378954317"/>
				</identifier>
				<name>
					<use value="official"/>
					<text value="Mr William Smith"/>
					<family value="SMITH"/>
					<given value="William"/>
					<prefix value="Mr"/>
				</name>
				<gender value="male"/>
				<birthDate value="1966-02-04"/>
				<address>
					<use value="home"/>
					<line value="14 Sunny Mews"/>
					<city value="ANYTOWN"/>
					<district value="WEST YORKSHIRE"/>
					<postalCode value="LS17 4NK"/>
				</address>
				<maritalStatus>
					<coding>
						<system value="http://hl7.org/fhir/v3/MaritalStatus"/>
						<code value="M"/>
						<display value="Married"/>
					</coding>
				</maritalStatus>
			</Patient>
		</resource>
	</entry>
</Bundle>
