<?xml version="1.0" encoding="UTF-8"?>
<Bundle xmlns="http://hl7.org/fhir">
	<id value="a5b3144e-95ef-443b-97ed-a143e34f170a"/>
	<meta>
		<versionId value="1d0acfe9-d439-4c9b-9246-95f3150c32e9"/>
		<lastUpdated value="2018-11-08T13:46:37.969+00:00"/>
	</meta>
	<type value="searchset"/>
	<total value="1"/>
	<entry>
		<fullUrl value="[baseURL]/Observation/c94a3384-44b6-48a7-95ae-bcf1f1eb8888"/>
		<resource>
			<Observation xmlns="http://hl7.org/fhir">
				<id value="c94a3384-44b6-48a7-95ae-bcf1f1eb8888"/>
				<meta>
					<profile value="https://fhir.nhs.uk/STU3/StructureDefinition/CareConnect-NEWS2-Observation-1"/>
				</meta>
				<status value="final"/>
				<category>
					<coding>
						<system value="http://hl7.org/fhir/observation-category"/>
						<code value="survey"/>
						<display value="Survey"/>
					</coding>
				</category>
				<code>
					<coding>
						<system value="http://snomed.info/sct"/>
						<code value="1104051000000101"/>
						<display value="Royal College of Physicians NEWS2 (National Early Warning Score 2) total score"/>
					</coding>
				</code>
				<subject>
					<reference value="Patient/4f78d392-c9e0-4f1f-9ab6-57d387838690"/>
				</subject>
				<effectiveDateTime value="2018-10-04T14:17:59+01:00"/>
				<performer>
					<reference value="Performer/2360aba6-8561-4a22-bbbf-afc08e750146"/>
				</performer>
				<performer>
					<reference value="Organization/cd5f7770-6249-4f5d-ad8e-d0bb1446a4d9"/>
				</performer>
				<valueQuantity>
					<value value="6"/>
				</valueQuantity>
				<related>
					<type value="derived-from"/>
					<target>
						<reference value="Observation/bd789063-ba92-4dd9-8abc-246f4aef8d47"/>
					</target>
				</related>
				<related>
					<type value="derived-from"/>
					<target>
						<reference value="Observation/f80fc9e3-a4fe-400e-8fe4-83f7d5616ea2"/>
					</target>
				</related>
				<related>
					<type value="derived-from"/>
					<target>
						<reference value="Observation/dbbad20f-e696-405e-8c98-be0cdcc5406c"/>
					</target>
				</related>
				<related>
					<type value="derived-from"/>
					<target>
						<reference value="Observation/0b58c56e-6d73-4f4e-baac-4ebdb655ba86"/>
					</target>
				</related>
				<related>
					<type value="derived-from"/>
					<target>
						<reference value="Observation/35a1483b-4d04-4907-9f4e-c69ae409a1ea"/>
					</target>
				</related>
				<related>
					<type value="derived-from"/>
					<target>
						<reference value="Observation/a1f2519e-3cb1-4ba4-820a-57e47334b655"/>
					</target>
				</related>
				<related>
					<type value="derived-from"/>
					<target>
						<reference value="Observation/3a3fce15-32d6-4911-86f9-6f849066e0c1"/>
					</target>
				</related>
			</Observation>
		</resource>
	</entry>
	<entry>
		<fullUrl value="[baseURL]/Observation/3a3fce15-32d6-4911-86f9-6f849066e0c1"/>
		<resource>
			<Observation xmlns="http://hl7.org/fhir">
				<id value="3a3fce15-32d6-4911-86f9-6f849066e0c1"/>
				<meta>
					<profile value="https://fhir.hl7.org.uk/STU3/StructureDefinition/CareConnect-RespiratoryRate-Observation-1"/>
				</meta>
				<status value="final"/>
				<category>
					<coding>
						<system value="http://hl7.org/fhir/observation-category"/>
						<code value="vital-signs"/>
						<display value="Vital Signs"/>
					</coding>
				</category>
				<code>
					<coding>
						<system value="http://loinc.org"/>
						<code value="9279-1"/>
						<display value="Respiratory Rate"/>
					</coding>
					<coding>
						<system value="http://snomed.info/sct"/>
						<code value="86290005"/>
						<display value="Respiratory rate"/>
					</coding>
				</code>
				<subject>
					<reference value="Patient/4f78d392-c9e0-4f1f-9ab6-57d387838690"/>
				</subject>
				<effectiveDateTime value="2018-10-04T14:17:59+01:00"/>
				<performer>
					<reference value="Performer/2360aba6-8561-4a22-bbbf-afc08e750146"/>
				</performer>
				<performer>
					<reference value="Organization/cd5f7770-6249-4f5d-ad8e-d0bb1446a4d9"/>
				</performer>
				<valueQuantity>
					<value value="21"/>
					<unit value="/min"/>
					<system value="http://unitsofmeasure.org"/>
				</valueQuantity>
			</Observation>
		</resource>
	</entry>
	<entry>
		<fullUrl value="[baseURL]/Observation/a1f2519e-3cb1-4ba4-820a-57e47334b655"/>
		<resource>
			<Observation xmlns="http://hl7.org/fhir">
				<id value="a1f2519e-3cb1-4ba4-820a-57e47334b655"/>
				<meta>
					<profile value="https://fhir.hl7.org.uk/STU3/StructureDefinition/CareConnect-HeartRate-Observation-1"/>
				</meta>
				<status value="final"/>
				<category>
					<coding>
						<system value="http://hl7.org/fhir/observation-category"/>
						<code value="vital-signs"/>
						<display value="Vital Signs"/>
					</coding>
				</category>
				<code>
					<coding>
						<system value="http://loinc.org"/>
						<code value="8867-4"/>
						<display value="Heart rate"/>
					</coding>
					<coding>
						<system value="http://snomed.info/sct"/>
						<code value="364075005"/>
						<display value="Heart rate"/>
					</coding>
					<coding>
						<system value="http://snomed.info/sct"/>
						<code value="78564009"/>
						<display value="Pulse rate"/>
						<userSelected value="true"/>
					</coding>
				</code>
				<subject>
					<reference value="Patient/4f78d392-c9e0-4f1f-9ab6-57d387838690"/>
				</subject>
				<effectiveDateTime value="2018-10-04T14:17:59+01:00"/>
				<performer>
					<reference value="Performer/2360aba6-8561-4a22-bbbf-afc08e750146"/>
				</performer>
				<performer>
					<reference value="Organization/cd5f7770-6249-4f5d-ad8e-d0bb1446a4d9"/>
				</performer>
				<valueQuantity>
					<value value="95"/>
					<unit value="/min"/>
					<system value="http://unitsofmeasure.org"/>
				</valueQuantity>
			</Observation>
		</resource>
	</entry>
	<entry>
		<fullUrl value="[baseURL]/Observation/35a1483b-4d04-4907-9f4e-c69ae409a1ea"/>
		<resource>
			<Observation xmlns="http://hl7.org/fhir">
				<id value="35a1483b-4d04-4907-9f4e-c69ae409a1ea"/>
				<meta>
					<profile value="https://fhir.hl7.org.uk/STU3/StructureDefinition/CareConnect-OxygenSaturation-Observation-1"/>
				</meta>
				<status value="final"/>
				<category>
					<coding>
						<system value="http://hl7.org/fhir/observation-category"/>
						<code value="vital-signs"/>
						<display value="Vital Signs"/>
					</coding>
				</category>
				<code>
					<coding>
						<system value="http://loinc.org"/>
						<code value="59408-5"/>
						<display value="Oxygen saturation in Arterial blood by Pulse oximetry"/>
					</coding>
					<coding>
						<system value="http://snomed.info/sct"/>
						<code value="103228002"/>
						<display value="Hemoglobin saturation with oxygen"/>
					</coding>
				</code>
				<subject>
					<reference value="Patient/4f78d392-c9e0-4f1f-9ab6-57d387838690"/>
				</subject>
				<effectiveDateTime value="2018-10-04T14:17:59+01:00"/>
				<performer>
					<reference value="Performer/2360aba6-8561-4a22-bbbf-afc08e750146"/>
				</performer>
				<performer>
					<reference value="Organization/cd5f7770-6249-4f5d-ad8e-d0bb1446a4d9"/>
				</performer>
				<valueQuantity>
					<value value="93"/>
					<unit value="%"/>
					<system value="http://unitsofmeasure.org"/>
				</valueQuantity>
			</Observation>
		</resource>
	</entry>
	<entry>
		<fullUrl value="[baseURL]/Observation/0b58c56e-6d73-4f4e-baac-4ebdb655ba86"/>
		<resource>
			<Observation xmlns="http://hl7.org/fhir">
				<id value="0b58c56e-6d73-4f4e-baac-4ebdb655ba86"/>
				<meta>
					<profile value="https://fhir.hl7.org.uk/STU3/StructureDefinition/CareConnect-InspiredOxygen-Observation-1"/>
				</meta>
				<status value="final"/>
				<code>
					<coding>
						<system value="http://snomed.info/sct"/>
						<code value="722742002"/>
						<display value="Breathing room air"/>
					</coding>
				</code>
				<subject>
					<reference value="Patient/4f78d392-c9e0-4f1f-9ab6-57d387838690"/>
				</subject>
				<effectiveDateTime value="2018-10-04T14:17:59+01:00"/>
				<performer>
					<reference value="Performer/2360aba6-8561-4a22-bbbf-afc08e750146"/>
				</performer>
				<performer>
					<reference value="Organization/cd5f7770-6249-4f5d-ad8e-d0bb1446a4d9"/>
				</performer>
			</Observation>
		</resource>
	</entry>
	<entry>
		<fullUrl value="[baseURL]/Observation/dbbad20f-e696-405e-8c98-be0cdcc5406c"/>
		<resource>
			<Observation xmlns="http://hl7.org/fhir">
				<id value="dbbad20f-e696-405e-8c98-be0cdcc5406c"/>
				<meta>
					<profile value="https://fhir.hl7.org.uk/STU3/StructureDefinition/CareConnect-BodyTemperature-Observation-1"/>
				</meta>
				<status value="final"/>
				<category>
					<coding>
						<system value="http://hl7.org/fhir/observation-category"/>
						<code value="vital-signs"/>
						<display value="Vital Signs"/>
					</coding>
				</category>
				<code>
					<coding>
						<system value="http://loinc.org"/>
						<code value="8310-5"/>
						<display value="Body temperature"/>
					</coding>
					<coding>
						<system value="http://snomed.info/sct"/>
						<code value="276885007"/>
						<display value="Core body temperature"/>
					</coding>
				</code>
				<subject>
					<reference value="Patient/4f78d392-c9e0-4f1f-9ab6-57d387838690"/>
				</subject>
				<effectiveDateTime value="2018-10-04T14:17:59+01:00"/>
				<performer>
					<reference value="Performer/2360aba6-8561-4a22-bbbf-afc08e750146"/>
				</performer>
				<performer>
					<reference value="Organization/cd5f7770-6249-4f5d-ad8e-d0bb1446a4d9"/>
				</performer>
				<valueQuantity>
					<value value="38.5"/>
					<unit value="Cel"/>
					<system value="http://unitsofmeasure.org"/>
				</valueQuantity>
			</Observation>
		</resource>
	</entry>
	<entry>
		<fullUrl value="[baseURL]/Observation/f80fc9e3-a4fe-400e-8fe4-83f7d5616ea2"/>
		<resource>
			<Observation xmlns="http://hl7.org/fhir">
				<id value="f80fc9e3-a4fe-400e-8fe4-83f7d5616ea2"/>
				<meta>
					<profile value="https://fhir.hl7.org.uk/STU3/StructureDefinition/CareConnect-BloodPressure-Observation-1"/>
				</meta>
				<status value="final"/>
				<category>
					<coding>
						<system value="http://hl7.org/fhir/observation-category"/>
						<code value="vital-signs"/>
						<display value="Vital Signs"/>
					</coding>
				</category>
				<code>
					<coding>
						<system value="http://loinc.org"/>
						<code value="85354-9"/>
						<display value="Blood pressure panel with all children optional"/>
					</coding>
					<coding>
						<system value="http://snomed.info/sct"/>
						<code value="75367002"/>
						<display value="Blood pressure"/>
					</coding>
				</code>
				<subject>
					<reference value="Patient/4f78d392-c9e0-4f1f-9ab6-57d387838690"/>
				</subject>
				<effectiveDateTime value="2018-10-04T14:17:59+01:00"/>
				<performer>
					<reference value="Performer/2360aba6-8561-4a22-bbbf-afc08e750146"/>
				</performer>
				<performer>
					<reference value="Organization/cd5f7770-6249-4f5d-ad8e-d0bb1446a4d9"/>
				</performer>
				<bodySite>
					<coding>
						<system value="http://snomed.info/sct"/>
						<code value="368209003"/>
						<display value="Right arm"/>
					</coding>
				</bodySite>
				<component>
					<code>
						<coding>
							<system value="http://loinc.org"/>
							<code value="8480-6"/>
							<display value="Systolic blood pressure"/>
						</coding>
						<coding>
							<system value="http://snomed.info/sct"/>
							<code value="72313002"/>
							<display value="Systolic blood pressure"/>
						</coding>
					</code>
					<valueQuantity>
						<value value="120"/>
						<unit value="mmHg"/>
						<system value="http://unitsofmeasure.org"/>
					</valueQuantity>
				</component>
				<component>
					<code>
						<coding>
							<system value="http://loinc.org"/>
							<code value="8462-4"/>
							<display value="Diastolic blood pressure"/>
						</coding>
						<coding>
							<system value="http://snomed.info/sct"/>
							<code value="1091811000000102"/>
							<display value="Diastolic arterial pressure"/>
						</coding>
					</code>
					<valueQuantity>
						<value value="60"/>
						<unit value="mmHg"/>
						<system value="http://unitsofmeasure.org"/>
					</valueQuantity>
				</component>
			</Observation>
		</resource>
	</entry>
	<entry>
		<fullUrl value="[baseURL]/Observation/bd789063-ba92-4dd9-8abc-246f4aef8d47"/>
		<resource>
			<Observation xmlns="http://hl7.org/fhir">
				<id value="bd789063-ba92-4dd9-8abc-246f4aef8d47"/>
				<meta>
					<profile value="hhttps://fhir.hl7.org.uk/STU3/StructureDefinition/CareConnect-ACPVU-Observation-1"/>
				</meta>
				<status value="final"/>
				<code>
					<coding>
						<system value="http://snomed.info/sct"/>
						<code value="1104441000000107"/>
						<display value="Alert Confusion Voice Pain Unresponsiveness scale"/>
					</coding>
				</code>
				<subject>
					<reference value="Patient/4f78d392-c9e0-4f1f-9ab6-57d387838690"/>
				</subject>
				<effectiveDateTime value="2018-10-04T14:17:59+01:00"/>
				<performer>
					<reference value="Performer/2360aba6-8561-4a22-bbbf-afc08e750146"/>
				</performer>
				<performer>
					<reference value="Organization/cd5f7770-6249-4f5d-ad8e-d0bb1446a4d9"/>
				</performer>
				<valueCodeableConcept>
					<coding>
						<system value="http://snomed.info/sct"/>
						<code value="248234008"/>
						<display value="Mentally alert"/>
					</coding>
				</valueCodeableConcept>
			</Observation>
		</resource>
	</entry>
	<entry>
		<fullUrl value="[baseURL]/Practitioner/2360aba6-8561-4a22-bbbf-afc08e750146"/>
		<resource>
			<Practitioner>
				<id value="2360aba6-8561-4a22-bbbf-afc08e750146"/>
				<meta>
					<profile value="https://fhir.hl7.org.uk/STU3/StructureDefinition/CareConnect-Practitioner-1"/>
				</meta>
				<identifier>
					<system value="https://fhir.hl7.org.uk/Id/gmc-number"/>
					<value value="6122477"/>
				</identifier>
				<name>
					<family value="Rastall"/>
					<given value="Paul"/>
					<prefix value="Dr"/>
				</name>
				<telecom>
					<system value="phone"/>
					<value value="01136323200"/>
					<use value="work"/>
				</telecom>
				<gender value="male"/>
			</Practitioner>
		</resource>
	</entry>
	<entry>
		<fullUrl value="[baseURL]/Organization/cd5f7770-6249-4f5d-ad8e-d0bb1446a4d9"/>
		<resource>
			<Organization>
				<id value="cd5f7770-6249-4f5d-ad8e-d0bb1446a4d9"/>
				<meta>
					<profile value="https://fhir.hl7.org.uk/STU3/StructureDefinition/CareConnect-Organization-1"/>
				</meta>
				<identifier>
					<system value="https://fhir.nhs.uk/Id/ods-organization-code"/>
					<value value="ABC123"/>
				</identifier>
				<name value="ANYTOWN ROYAL INFIRMARY"/>
				<telecom>
					<system value="phone"/>
					<value value="01134875516"/>
				</telecom>
				<address>
					<line value="1 High Street"/>
					<city value="ANYTOWN"/>
					<postalCode value="LS1 9AM"/>
				</address>
			</Organization>
		</resource>
	</entry>
	<entry>
		<fullUrl value="[baseURL]/Patient/4f78d392-c9e0-4f1f-9ab6-57d387838690"/>
		<resource>
			<Patient>
				<id value="4f78d392-c9e0-4f1f-9ab6-57d387838690"/>
				<meta>
					<profile value="https://fhir.hl7.org.uk/STU3/StructureDefinition/CareConnect-Patient-1"/>
				</meta>
				<identifier>
					<extension url="https://fhir.hl7.org.uk/STU3/StructureDefinition/Extension-CareConnect-NHSNumberVerificationStatus-1">
						<valueCodeableConcept>
							<coding>
								<system value="https://fhir.hl7.org.uk/STU3/CodeSystem/CareConnect-NHSNumberVerificationStatus-1"/>
								<code value="01"/>
								<display value="Number present and verified"/>
							</coding>
						</valueCodeableConcept>
					</extension>
					<system value="https://fhir.nhs.uk/Id/nhs-number"/>
					<value value="2378954317"/>
				</identifier>
				<name>
					<use value="official"/>
					<text value="Mr William Smith"/>
					<family value="SMITH"/>
					<given value="William"/>
					<prefix value="Mr"/>
				</name>
				<gender value="male"/>
				<birthDate value="1966-02-04"/>
				<address>
					<use value="home"/>
					<line value="14 Sunny Mews"/>
					<city value="ANYTOWN"/>
					<district value="WEST YORKSHIRE"/>
					<postalCode value="LS17 4NK"/>
				</address>
				<maritalStatus>
					<coding>
						<system value="http://hl7.org/fhir/v3/MaritalStatus"/>
						<code value="M"/>
						<display value="Married"/>
					</coding>
				</maritalStatus>
			</Patient>
		</resource>
	</entry>
</Bundle>
