<!-- RARecord-Flag-1 example - for v0.0.3 clarification examples -->
<!-- Example
1.	A patient with multiple Reasonable Adjustments within the same Category

Reasonable Adjustment Category: Communication Needs
Reasonable Adjustment 1: Requires information in Easy read
Reasonable Adjustment 2: Uses Personal Communication passport

Noticed we've got slightly earlier versions of the picklists/codesystems in this release still.
EasyRead & Communication passport are in AccessibleInformation, but AccessibleInformation isn't in the AdjustmentCategory list!

Using variant (so they're both in the same Category)
Reasonable Adjustment Category: Communication Needs
Reasonable Adjustment 1: Provide written reminders and advice
Reasonable Adjustment 2: Adjust for use of communication book / aid

1. RARecord-Flag-1-example-2.xml
2. RARecord-Flag-1-example-3.xml
  -->
<Flag xmlns="http://hl7.org/fhir">
    <id value="7e437dcf-2e3f-45ad-9cab-5e4176c11e41"/>
    <meta>
        <versionId value="7585efde-6df2-4ade-a221-9b1489c904ee"/>
        <lastUpdated value="2016-03-01T10:04:33+00:00"/>
        <profile value="https://fhir.nhs.uk/STU3/StructureDefinition/RARecord-Flag-1"/>
    </meta>
    <contained>
            <Provenance>
                <id value="b66c320e-63bb-4d5a-848e-f922852a7b5a"/>
                <meta>
                    <profile value="https://fhir.nhs.uk/STU3/StructureDefinition/RARecord-Provenance-1"/>
                </meta>
                <target>
                    <reference value="Flag/7e437dcf-2e3f-45ad-9cab-5e4176c11e41"/>
                </target>
                <recorded value="2016-03-01T10:05:33+00:00"/>
                <agent>
                    <role>
                        <coding>
                            <system value="https://fhir.nhs.uk/STU3/CodeSystem/CareConnect-SDSJobRoleName-1"/>
                            <code value="R0260"/>
                            <display value="General Medical Practitioner"/>
                        </coding>
                    </role>
                    <whoReference>
                        <reference value="https://sds.spineservices.nhs.uk/STU3/Practitioner/2ee4tr6a9"/>
                        <display value="Dr.D"/>
                    </whoReference>
                    <onBehalfOfReference>
                        <reference value="https://directory.spineservices.nhs.uk/STU3/Organization/a3e5i7"/>
                        <display value="Some GP Clinic"/>
                    </onBehalfOfReference>
                </agent>
            </Provenance>
    </contained>
    <extension url="https://fhir.nhs.uk/STU3/StructureDefinition/Extension-RARecord-Provenance-1">
        <extension url="created">
            <valueReference>
                <reference value="#b66c320e-63bb-4d5a-848e-f922852a7b5a"/>
            </valueReference>
        </extension>
    </extension>
    <extension url="https://fhir.nhs.uk/STU3/StructureDefinition/Extension-RARecord-AdjustmentCategory-1">
        <valueCodeableConcept>
            <coding>
                <system value="https://fhir.nhs.uk/STU3/CodeSystem/CodeSystem-RARecord-AdjustmentCategories-1"/>
                <code value="comms"/>
                <display value="Communication"/>
            </coding>
        </valueCodeableConcept>
    </extension>
    <status value="active"/>
    <category>
        <coding>
            <system value="https://fhir.nhs.uk/STU3/CodeSystem/CodeSystem-RARecord-FlagCategory-1"/>
            <code value="reasonable adjustments flag"/>
            <display value="Reasonable Adjustments Flag"/>
        </coding>
    </category>
    <code>
        <coding>
            <system value="https://fhir.nhs.uk/STU3/CodeSystem/CodeSystem-RARecord-CommunicationAdjustments-1"/>
            <code value="providewrittenremindersandadvice"/>
            <display value="Provide written reminders and advice"/>
        </coding>
    </code>
    <subject>
        <reference value="demographics.spineservices.nhs.uk/STU3/Patient/999999998"/>
    </subject>
</Flag>
