<!-- RARecord-Flag-1 example - for v0.0.3 clarification examples -->
<!-- Example
4.	A patient with a Reasonable Adjustment which is entirely free text i.e. a Generic reasonable adjustment

Reasonable Adjustment Category: Generic Reasonable Adjustment
Supporting Detail (free text): Patient struggles to communicate directly however carries a toy with them, experience has shown communicating through the toy to explain issues and required procedures helps the patient feel more at ease and digest the information


1. RARecord-Flag-1-example-7.xml
-->
<Flag xmlns="http://hl7.org/fhir">
    <id value="3e497b93-990f-4e54-8414-0efef10bdcf4"/>
    <meta>
        <versionId value="bcc5f42e-16d1-4d79-bfbd-15720b7f7aa0"/>
        <lastUpdated value="2016-03-01T10:04:33+00:00"/>
        <profile value="https://fhir.nhs.uk/STU3/StructureDefinition/RARecord-Flag-1"/>
    </meta>
    <contained>
        <Provenance>
            <id value="e564d65e-17bd-4539-b0c6-adfa6f051b06"/>
            <meta>
                <profile value="https://fhir.nhs.uk/STU3/StructureDefinition/RARecord-Provenance-1"/>
            </meta>
            <target>
                <reference value="Flag/3e497b93-990f-4e54-8414-0efef10bdcf4"/>
            </target>
            <recorded value="2016-03-01T10:05:33+00:00"/>
            <agent>
                <role>
                    <coding>
                        <system value="https://fhir.nhs.uk/STU3/CodeSystem/CareConnect-SDSJobRoleName-1"/>
                        <code value="R0260"/>
                        <display value="General Medical Practitioner"/>
                    </coding>
                </role>
                <whoReference>
                    <reference value="https://sds.spineservices.nhs.uk/STU3/Practitioner/2ee4tr6a9"/>
                    <display value="Dr.D"/>
                </whoReference>
                <onBehalfOfReference>
                    <reference value="https://directory.spineservices.nhs.uk/STU3/Organization/a3e5i7"/>
                    <display value="Some GP Clinic"/>
                </onBehalfOfReference>
            </agent>
        </Provenance>
    </contained>
    <extension url="https://fhir.nhs.uk/STU3/StructureDefinition/Extension-RARecord-Provenance-1">
        <extension url="created">
            <valueReference>
                <reference value="#e564d65e-17bd-4539-b0c6-adfa6f051b06"/>
            </valueReference>
        </extension>
    </extension>
    <extension url="https://fhir.nhs.uk/STU3/StructureDefinition/Extension-RARecord-AdjustmentCategory-1">
        <valueCodeableConcept>
            <coding>
                <system value="https://fhir.nhs.uk/STU3/CodeSystem/CodeSystem-RARecord-AdjustmentCategories-1"/>
                <code value="other"/>
                <display value="Other reasonable adjustment context  and/ or considerations"/>
            </coding>
        </valueCodeableConcept>
    </extension>
    <extension url="https://fhir.nhs.uk/STU3/StructureDefinition/Extension-RARecord-AdjustmentNotes-1">
        <valueAnnotation>
            <text value="Patient struggles to communicate directly however carries a toy with them, experience has shown communicating through the toy to explain issues and required procedures helps the patient feel more at ease and digest the information"/>
        </valueAnnotation>
    </extension>
    <status value="active"/>
    <category>
        <coding>
            <system value="https://fhir.nhs.uk/STU3/CodeSystem/CodeSystem-RARecord-FlagCategory-1"/>
            <code value="reasonable adjustments flag"/>
            <display value="Reasonable Adjustments Flag"/>
        </coding>
    </category>
    <code>
        <coding>
            <system value="https://fhir.nhs.uk/STU3/CodeSystem/CodeSystem-RARecord-OtherAdjustments-1"/>
            <code value="reasonableadjustmentsforhealthandcareaccess"/>
            <display value="Reasonable adjustments for health and care access"/>
        </coding>
    </code>
    <subject>
        <reference value="demographics.spineservices.nhs.uk/STU3/Patient/999999998"/>
    </subject>
</Flag>
