<!-- RARecord-Flag-1 example - for v0.0.3 clarification examples -->
<!-- Example
3.	A patient with a Reasonable Adjustment which contains a Reasonable Adjustment Code plus additional detail (free text)

Reasonable Adjustment Category: Individual Care Requirements
Reasonable Adjustment: Consider adjustment to provide Female only support
Supporting detail (free text): Patient becomes anxious when treated by Male staff

We've got slightly earlier versions of the picklists/codesystems in this release still
Nearest Category & Code match used
1. RARecord-Flag-1-example-6.xml
-->
<Flag xmlns="http://hl7.org/fhir">
    <id value="dc274215-8c99-4133-b342-86144d249a2e"/>
    <meta>
        <versionId value="c207ab66-caec-4ebf-b06b-faf99ec424b5"/>
        <lastUpdated value="2016-03-01T10:04:33+00:00"/>
        <profile value="https://fhir.nhs.uk/STU3/StructureDefinition/RARecord-Flag-1"/>
    </meta>
    <contained>
        <Provenance>
            <id value="05d9afcc-79d1-4209-b810-4fcaddc25dbc"/>
            <meta>
                <profile value="https://fhir.nhs.uk/STU3/StructureDefinition/RARecord-Provenance-1"/>
            </meta>
            <target>
                <reference value="Flag/dc274215-8c99-4133-b342-86144d249a2e"/>
            </target>
            <recorded value="2016-03-01T10:05:33+00:00"/>
            <agent>
                <role>
                    <coding>
                        <system value="https://fhir.nhs.uk/STU3/CodeSystem/CareConnect-SDSJobRoleName-1"/>
                        <code value="R0260"/>
                        <display value="General Medical Practitioner"/>
                    </coding>
                </role>
                <whoReference>
                    <reference value="https://sds.spineservices.nhs.uk/STU3/Practitioner/2ee4tr6a9"/>
                    <display value="Dr.D"/>
                </whoReference>
                <onBehalfOfReference>
                    <reference value="https://directory.spineservices.nhs.uk/STU3/Organization/a3e5i7"/>
                    <display value="Some GP Clinic"/>
                </onBehalfOfReference>
            </agent>
        </Provenance>
    </contained>
    <extension url="https://fhir.nhs.uk/STU3/StructureDefinition/Extension-RARecord-Provenance-1">
        <extension url="created">
            <valueReference>
                <reference value="#05d9afcc-79d1-4209-b810-4fcaddc25dbc"/>
            </valueReference>
        </extension>
    </extension>
    <extension url="https://fhir.nhs.uk/STU3/StructureDefinition/Extension-RARecord-AdjustmentCategory-1">
        <valueCodeableConcept>
            <coding>
                <system value="https://fhir.nhs.uk/STU3/CodeSystem/CodeSystem-RARecord-AdjustmentCategories-1"/>
                <code value="personalisation"/>
                <display value="Personalisation of support"/>
            </coding>
        </valueCodeableConcept>
    </extension>
    <extension url="https://fhir.nhs.uk/STU3/StructureDefinition/Extension-RARecord-AdjustmentNotes-1">
        <valueAnnotation>
            <text value="Patient becomes anxious when treated by Male staff"/>
        </valueAnnotation>
    </extension>
    <status value="active"/>
    <category>
        <coding>
            <system value="https://fhir.nhs.uk/STU3/CodeSystem/CodeSystem-RARecord-FlagCategory-1"/>
            <code value="reasonable adjustments flag"/>
            <display value="Reasonable Adjustments Flag"/>
        </coding>
    </category>
    <code>
        <coding>
            <system value="https://fhir.nhs.uk/STU3/CodeSystem/CodeSystem-RARecord-PersonalisationAdjustments-1"/>
            <code value="maleorfemaleonlysupport"/>
            <display value="Male or Female only support"/>
        </coding>
    </code>
    <subject>
        <reference value="demographics.spineservices.nhs.uk/STU3/Patient/999999998"/>
    </subject>
</Flag>
