<!-- RARecord-Flag-1 example - for v0.0.3 clarification examples -->
<!-- Example
2.	A patient with multiple Reasonable Adjustments but fall under different Categories

Reasonable Adjustment Category: Environment
Reasonable Adjustment: Adjust / minimise waiting times

and bonus (to match '2.	A patient with multiple Reasonable Adjustments but fall under different Categories; ')

Reasonable Adjustment Category: Specific Risks
Reasonable Adjustment: Monitor for epilepsy

1. RARecord-Flag-1-example-4.xml
2. RARecord-Flag-1-example-5.xml
-->
<Flag xmlns="http://hl7.org/fhir">
    <id value="7c30576a-072b-408f-a709-dd0b6f5d07c8"/>
    <meta>
        <versionId value="3c7d0c2f-a35e-4148-b236-02865edc32b8"/>
        <lastUpdated value="2016-03-01T10:04:33+00:00"/>
        <profile value="https://fhir.nhs.uk/STU3/StructureDefinition/RARecord-Flag-1"/>
    </meta>
    <contained>
        <Provenance>
            <id value="be61dcef-58ac-4181-b02d-4848959cad2d"/>
            <meta>
                <profile value="https://fhir.nhs.uk/STU3/StructureDefinition/RARecord-Provenance-1"/>
            </meta>
            <target>
                <reference value="Flag/7c30576a-072b-408f-a709-dd0b6f5d07c8"/>
            </target>
            <recorded value="2016-03-01T10:05:33+00:00"/>
            <agent>
                <role>
                    <coding>
                        <system value="https://fhir.nhs.uk/STU3/CodeSystem/CareConnect-SDSJobRoleName-1"/>
                        <code value="R0260"/>
                        <display value="General Medical Practitioner"/>
                    </coding>
                </role>
                <whoReference>
                    <reference value="https://sds.spineservices.nhs.uk/STU3/Practitioner/2ee4tr6a9"/>
                    <display value="Dr.D"/>
                </whoReference>
                <onBehalfOfReference>
                    <reference value="https://directory.spineservices.nhs.uk/STU3/Organization/a3e5i7"/>
                    <display value="Some GP Clinic"/>
                </onBehalfOfReference>
            </agent>
        </Provenance>
    </contained>
    <extension url="https://fhir.nhs.uk/STU3/StructureDefinition/Extension-RARecord-Provenance-1">
        <extension url="created">
            <valueReference>
                <reference value="#be61dcef-58ac-4181-b02d-4848959cad2d"/>
            </valueReference>
        </extension>
    </extension>
    <extension url="https://fhir.nhs.uk/STU3/StructureDefinition/Extension-RARecord-AdjustmentCategory-1">
        <valueCodeableConcept>
            <coding>
                <system value="https://fhir.nhs.uk/STU3/CodeSystem/CodeSystem-RARecord-AdjustmentCategories-1"/>
                <code value="environment"/>
                <display value="Environment"/>
            </coding>
        </valueCodeableConcept>
    </extension>
    <status value="active"/>
    <category>
        <coding>
            <system value="https://fhir.nhs.uk/STU3/CodeSystem/CodeSystem-RARecord-FlagCategory-1"/>
            <code value="reasonable adjustments flag"/>
            <display value="Reasonable Adjustments Flag"/>
        </coding>
    </category>
    <code>
        <coding>
            <system value="https://fhir.nhs.uk/STU3/CodeSystem/CodeSystem-RARecord-EnvironmentAdjustments-1"/>
            <code value="adjustminimisewaitingtimes"/>
            <display value="Adjust / minimise waiting times"/>
        </coding>
    </code>
    <subject>
        <reference value="demographics.spineservices.nhs.uk/STU3/Patient/999999998"/>
    </subject>
</Flag>
