<!-- RARecord-Flag-1 example - for v0.0.3 clarification examples -->
<!-- Example
2.	A patient with multiple Reasonable Adjustments but fall under different Categories

Reasonable Adjustment Category: Environment
Reasonable Adjustment: Adjust / minimise waiting times

and bonus (to match '2.	A patient with multiple Reasonable Adjustments but fall under different Categories; ')

Reasonable Adjustment Category: Specific Risks
Reasonable Adjustment: Monitor for epilepsy


1. RARecord-Flag-1-example-4.xml
2. RARecord-Flag-1-example-5.xml
-->
<Flag xmlns="http://hl7.org/fhir">
    <id value="5438ab03-6c48-481f-9c60-2e4378a05232"/>
    <meta>
        <versionId value="74864cb5-02cb-4e55-b7d0-d1dc4f69214c"/>
        <lastUpdated value="2016-03-01T10:04:33+00:00"/>

        <profile value="https://fhir.nhs.uk/STU3/StructureDefinition/RARecord-Flag-1"/>
    </meta>
    <contained>
        <Provenance>
            <id value="a01bea4d-411c-463f-a389-53fe077fc07b"/>
            <meta>
                <profile value="https://fhir.nhs.uk/STU3/StructureDefinition/RARecord-Provenance-1"/>
            </meta>
            <target>
                <reference value="Flag/5438ab03-6c48-481f-9c60-2e4378a05232"/>
            </target>
            <recorded value="2016-03-01T10:05:33+00:00"/>
            <agent>
                <role>
                    <coding>
                        <system value="https://fhir.nhs.uk/STU3/CodeSystem/CareConnect-SDSJobRoleName-1"/>
                        <code value="R0260"/>
                        <display value="General Medical Practitioner"/>
                    </coding>
                </role>
                <whoReference>
                    <reference value="https://sds.spineservices.nhs.uk/STU3/Practitioner/2ee4tr6a9"/>
                    <display value="Dr.D"/>
                </whoReference>
                <onBehalfOfReference>
                    <reference value="https://directory.spineservices.nhs.uk/STU3/Organization/a3e5i7"/>
                    <display value="Some GP Clinic"/>
                </onBehalfOfReference>
            </agent>
        </Provenance>
    </contained>
    <extension url="https://fhir.nhs.uk/STU3/StructureDefinition/Extension-RARecord-Provenance-1">
        <extension url="created">
            <valueReference>
                <reference value="#a01bea4d-411c-463f-a389-53fe077fc07b"/>
            </valueReference>
        </extension>
    </extension>
    <extension url="https://fhir.nhs.uk/STU3/StructureDefinition/Extension-RARecord-AdjustmentCategory-1">
        <valueCodeableConcept>
            <coding>
                <system value="https://fhir.nhs.uk/STU3/CodeSystem/CodeSystem-RARecord-AdjustmentCategories-1"/>
                <code value="risk"/>
                <display value="Specific Risks"/>
            </coding>
        </valueCodeableConcept>
    </extension>
    <status value="active"/>
    <category>
        <coding>
            <system value="https://fhir.nhs.uk/STU3/CodeSystem/CodeSystem-RARecord-FlagCategory-1"/>
            <code value="reasonable adjustments flag"/>
            <display value="Reasonable Adjustments Flag"/>
        </coding>
    </category>
    <code>
        <coding>
            <system value="https://fhir.nhs.uk/STU3/CodeSystem/CodeSystem-RARecord-SpecificRisksAdjustments-1"/>
            <code value="monitorforepilepsy"/>
            <display value="Monitor for epilepsy"/>
        </coding>
    </code>
    <subject>
        <reference value="demographics.spineservices.nhs.uk/STU3/Patient/999999998"/>
    </subject>
</Flag>
